acc,accuracy,audio,audio_low_latency_play_bitdepth,audio_low_latency_play_channels,audio_low_latency_play_device_name,audio_low_latency_play_module,audio_low_latency_play_period_size,audio_low_latency_play_samplerate,audio_low_latency_play_samplewidth,audio_low_latency_record_bitdepth,audio_low_latency_record_channels,audio_low_latency_record_device_name,audio_low_latency_record_module,audio_low_latency_record_period_size,audio_low_latency_record_samplerate,audio_low_latency_record_samplewidth,average_response_time,avg_rt,background,canvas_backend,clock_backend,color_backend,compensation,coordinates,correct,correct_instruction_begin,correct_instruction_practice,count_Instruction_1_1,count_einde_experiment,count_experiment,count_fix_off,count_fix_on,count_fixation,count_fixation_duration,count_init_audio_recording,count_instruction1,count_instruction_1,count_instruction_2,count_instruction_3,count_instruction_begin,count_instruction_practice,count_new_audio_low_latency_play,count_new_audio_low_latency_play_init,count_new_audio_low_latency_record,count_new_logger,count_new_sketchpad,count_new_sketchpad_1,count_new_titta_calibrate,count_new_titta_init,count_new_titta_start_recording,count_new_titta_stop_recording,count_offset_pic,count_offset_playback,count_offset_recording,count_offset_trial,count_onset_pic,count_onset_playback,count_onset_recording,count_onset_trial,count_picture_duration,count_picture_presentation,count_practice_loop,count_test_loop,count_trial,datetime,delay_fixation_duration,delay_picture_duration,description,disable_garbage_collection,experiment_file,experiment_path,font_bold,font_family,font_italic,font_size,font_underline,foreground,form_clicks,fullscreen,height,keyboard_backend,live_row,live_row_practice_loop,logfile,mouse_backend,opensesame_codename,opensesame_version,pos1,pos2,pos3,pos4,repeat_cycle,response,response_Instruction_1_1,response_einde_experiment,response_instruction1,response_instruction_begin,response_instruction_practice,response_new_sketchpad,response_new_sketchpad_1,response_time,response_time_Instruction_1_1,response_time_einde_experiment,response_time_instruction1,response_time_instruction_begin,response_time_instruction_practice,response_time_new_sketchpad,response_time_new_sketchpad_1,round_decimals,sampler_backend,sound_buf_size,sound_channels,sound_freq,sound_sample_size,start,subject_nr,subject_parity,time_Instruction_1_1,time_einde_experiment,time_experiment,time_fix_off,time_fix_on,time_fixation,time_fixation_duration,time_init_audio_recording,time_instruction1,time_instruction_1,time_instruction_2,time_instruction_3,time_instruction_begin,time_instruction_practice,time_new_audio_low_latency_play,time_new_audio_low_latency_play_init,time_new_audio_low_latency_record,time_new_logger,time_new_sketchpad,time_new_sketchpad_1,time_new_titta_calibrate,time_new_titta_init,time_new_titta_start_recording,time_new_titta_stop_recording,time_offset_pic,time_offset_playback,time_offset_recording,time_offset_trial,time_onset_pic,time_onset_playback,time_onset_recording,time_onset_trial,time_picture_duration,time_picture_presentation,time_practice_loop,time_stimulus_offset_new_audio_low_latency_play,time_stimulus_offset_new_audio_low_latency_record,time_stimulus_onset_new_audio_low_latency_play,time_stimulus_onset_new_audio_low_latency_record,time_test_loop,time_trial,title,total_correct,total_response_time,total_responses,uniform_coordinates,width
undefined,undefined,prac3_E_badkamer_water.wav,16,2,"hw:CARD=PCH,DEV=0",PyAlsaAudio (Linux only),1024,44100,2,16,2,"M2: USB Audio (hw:1,0)",SoundDevice (PortAudio),1024,44100,2,undefined,undefined,black,psycho,psycho,psycho,0,uniform,undefined,undefined,undefined,NA,0,0,0,0,0,0,0,NA,NA,NA,NA,0,0,0,0,0,0,NA,0,0,0,0,0,0,0,0,0,0,0,0,0,0,0,0,0,0,Fri Nov  3 10:24:35 2023,1000,2000,The main experiment item,yes,eye-trackingEarlyLate_motu-m2.osexp,/srv/data/research_data/Bob/esther/1EarlyLate,no,mono,no,18,no,white,no,yes,1080,psycho,0,0,/srv/data/research_data/Bob/esther/1EarlyLate/subject-1114.csv,psycho,Lentiform Loewenfeld,3.3.14,beard.jpg,wallet.jpg,hose.jpg,shower.jpg,0,space,NA,NA,NA,space,space,NA,NA,12664.99996,NA,NA,NA,10977.2718,12664.99996,NA,NA,2,psycho,1024,2,48000,-16,experiment,1114,even,NA,NA,8256.081104,65772.09401,64771.95001,64771.77906,64772.03012,19282.619,NA,NA,NA,NA,8304.776192,51988.55209,67789.18409,19282.60016,71064.00013,74411.85617,NA,NA,19323.86899,4512.962103,51970.25108,NA,67789.03699,71063.82704,74411.67212,74411.79419,65788.84315,67789.12902,71063.93409,65788.92612,65788.97619,65788.65719,64653.90205,71063.71808,74411.50498,67789.22606,71064.183,NA,64752.05517,New experiment,0,0,0,yes,1920
undefined,undefined,prac4_L_hakken_natuurlijk.wav,16,2,"hw:CARD=PCH,DEV=0",PyAlsaAudio (Linux only),1024,44100,2,16,2,"M2: USB Audio (hw:1,0)",SoundDevice (PortAudio),1024,44100,2,undefined,undefined,black,psycho,psycho,psycho,0,uniform,undefined,undefined,undefined,NA,0,0,1,1,1,1,0,NA,NA,NA,NA,0,0,1,0,1,1,NA,0,0,0,0,0,1,1,1,1,1,1,1,1,1,1,0,0,1,Fri Nov  3 10:24:35 2023,1000,2000,The main experiment item,yes,eye-trackingEarlyLate_motu-m2.osexp,/srv/data/research_data/Bob/esther/1EarlyLate,no,mono,no,18,no,white,no,yes,1080,psycho,1,1,/srv/data/research_data/Bob/esther/1EarlyLate/subject-1114.csv,psycho,Lentiform Loewenfeld,3.3.14,priest2.jpg,log2.jpg,arrow.jpg,ax.jpg,0,space,NA,NA,NA,space,space,NA,NA,12664.99996,NA,NA,NA,10977.2718,12664.99996,NA,NA,2,psycho,1024,2,48000,-16,experiment,1114,even,NA,NA,8256.081104,75688.833,74688.66396,74688.49707,74688.75313,19282.619,NA,NA,NA,NA,8304.776192,51988.55209,77705.93214,19282.60016,81027.179,83839.75101,NA,NA,19323.86899,4512.962103,51970.25108,NA,77705.78909,81027.004,83839.57219,83839.67304,75705.56712,77705.87802,81027.11415,75705.652,75705.70397,75705.38902,64653.90205,81026.90601,83839.41007,77705.97601,81027.34709,NA,74671.53001,New experiment,0,0,0,yes,1920
undefined,undefined,prac1_E_wielen_ziekenhuis.wav,16,2,"hw:CARD=PCH,DEV=0",PyAlsaAudio (Linux only),1024,44100,2,16,2,"M2: USB Audio (hw:1,0)",SoundDevice (PortAudio),1024,44100,2,undefined,undefined,black,psycho,psycho,psycho,0,uniform,undefined,undefined,undefined,NA,0,0,2,2,2,2,0,NA,NA,NA,NA,0,0,2,0,2,2,NA,0,0,0,0,0,2,2,2,2,2,2,2,2,2,2,0,0,2,Fri Nov  3 10:24:35 2023,1000,2000,The main experiment item,yes,eye-trackingEarlyLate_motu-m2.osexp,/srv/data/research_data/Bob/esther/1EarlyLate,no,mono,no,18,no,white,no,yes,1080,psycho,2,2,/srv/data/research_data/Bob/esther/1EarlyLate/subject-1114.csv,psycho,Lentiform Loewenfeld,3.3.14,wheelchair.jpg,nurse.jpg,bee.jpg,pan.jpg,0,space,NA,NA,NA,space,space,NA,NA,12664.99996,NA,NA,NA,10977.2718,12664.99996,NA,NA,2,psycho,1024,2,48000,-16,experiment,1114,even,NA,NA,8256.081104,85022.06898,84021.90709,84021.84415,84021.99101,19282.619,NA,NA,NA,NA,8304.776192,51988.55209,87039.22319,19282.60016,90174.81899,95031.69417,NA,NA,19323.86899,4512.962103,51970.25108,NA,87039.07919,90174.63708,95031.52704,95031.63099,85038.86604,87039.16907,90174.75104,85038.95116,85039.00504,85038.67316,64653.90205,90174.53909,95031.37803,87039.26611,90174.98899,NA,84007.7281,New experiment,0,0,0,yes,1920
undefined,undefined,prac2_L_nacht_kerstboom.wav,16,2,"hw:CARD=PCH,DEV=0",PyAlsaAudio (Linux only),1024,44100,2,16,2,"M2: USB Audio (hw:1,0)",SoundDevice (PortAudio),1024,44100,2,undefined,undefined,black,psycho,psycho,psycho,0,uniform,undefined,undefined,undefined,NA,0,0,3,3,3,3,0,NA,NA,NA,NA,0,0,3,0,3,3,NA,0,0,0,0,0,3,3,3,3,3,3,3,3,3,3,0,0,3,Fri Nov  3 10:24:35 2023,1000,2000,The main experiment item,yes,eye-trackingEarlyLate_motu-m2.osexp,/srv/data/research_data/Bob/esther/1EarlyLate,no,mono,no,18,no,white,no,yes,1080,psycho,3,3,/srv/data/research_data/Bob/esther/1EarlyLate/subject-1114.csv,psycho,Lentiform Loewenfeld,3.3.14,moon.jpg,wallet.jpg,star.jpg,belt.jpg,0,space,NA,NA,NA,space,space,NA,NA,12664.99996,NA,NA,NA,10977.2718,12664.99996,NA,NA,2,psycho,1024,2,48000,-16,experiment,1114,even,NA,NA,8256.081104,96205.58119,95205.36017,95205.28007,95205.48511,19282.619,NA,NA,NA,NA,8304.776192,51988.55209,98222.66698,19282.60016,101683.229,103846.1931,NA,NA,19323.86899,4512.962103,51970.25108,NA,98222.51415,101683.0671,103846.0212,103846.1311,96222.2991,98222.61119,101683.166,96222.38398,96222.435,96222.11814,64653.90205,101682.97,103845.7611,98222.71204,101683.387,NA,95195.12415,New experiment,0,0,0,yes,1920
undefined,undefined,28_L_schieten_draagbaar.wav,16,2,"hw:CARD=PCH,DEV=0",PyAlsaAudio (Linux only),1024,44100,2,16,2,"M2: USB Audio (hw:1,0)",SoundDevice (PortAudio),1024,44100,2,undefined,undefined,black,psycho,psycho,psycho,0,uniform,undefined,undefined,undefined,NA,0,0,4,4,4,4,0,NA,NA,NA,NA,0,0,4,0,4,4,NA,0,0,0,0,0,4,4,4,4,4,4,4,4,4,4,0,0,4,Fri Nov  3 10:24:35 2023,1000,2000,The main experiment item,yes,eye-trackingEarlyLate_motu-m2.osexp,/srv/data/research_data/Bob/esther/1EarlyLate,no,mono,no,18,no,white,no,yes,1080,psycho,0,3,/srv/data/research_data/Bob/esther/1EarlyLate/subject-1114.csv,psycho,Lentiform Loewenfeld,3.3.14,organ.jpg,waiter.jpg,gun.jpg,cannon.jpg,0,space,NA,NA,NA,space,space,NA,space,16388.00883,NA,NA,NA,10977.2718,12664.99996,NA,16388.00883,2,psycho,1024,2,48000,-16,experiment,1114,even,NA,NA,8256.081104,121455.8182,120455.642,120455.476,120455.723,19282.619,NA,NA,NA,NA,8304.776192,51988.55209,123472.7912,19282.60016,126259.944,128260.5791,NA,103955.3452,19323.86899,4512.962103,51970.25108,NA,123472.6372,126259.773,128260.4041,128260.5162,121472.4491,123472.7302,126259.877,121472.533,121472.585,121472.2731,64653.90205,126259.6641,128260.2,123472.8341,126260.1202,120343.658,120436.069,New experiment,0,0,0,yes,1920
undefined,undefined,55_E_baby_wielen.wav,16,2,"hw:CARD=PCH,DEV=0",PyAlsaAudio (Linux only),1024,44100,2,16,2,"M2: USB Audio (hw:1,0)",SoundDevice (PortAudio),1024,44100,2,undefined,undefined,black,psycho,psycho,psycho,0,uniform,undefined,undefined,undefined,NA,0,0,5,5,5,5,0,NA,NA,NA,NA,0,0,5,0,5,5,NA,0,0,0,0,0,5,5,5,5,5,5,5,5,5,5,0,0,5,Fri Nov  3 10:24:35 2023,1000,2000,The main experiment item,yes,eye-trackingEarlyLate_motu-m2.osexp,/srv/data/research_data/Bob/esther/1EarlyLate,no,mono,no,18,no,white,no,yes,1080,psycho,1,3,/srv/data/research_data/Bob/esther/1EarlyLate/subject-1114.csv,psycho,Lentiform Loewenfeld,3.3.14,wheelchair.jpg,stroller.jpg,hair.jpg,windmill.jpg,0,space,NA,NA,NA,space,space,NA,space,16388.00883,NA,NA,NA,10977.2718,12664.99996,NA,16388.00883,2,psycho,1024,2,48000,-16,experiment,1114,even,NA,NA,8256.081104,129455.7011,128455.564,128455.5042,128455.6451,19282.619,NA,NA,NA,NA,8304.776192,51988.55209,131472.8441,19282.60016,134747.179,136748.1282,NA,103955.3452,19323.86899,4512.962103,51970.25108,NA,131472.6961,134747.015,136747.962,136748.0681,129472.5161,131472.7921,134747.1161,129472.6031,129472.652,129472.331,64653.90205,134746.9151,136747.6912,131472.8861,134747.345,120343.658,128440.9442,New experiment,0,0,0,yes,1920
undefined,undefined,38_E_rond_Italie.wav,16,2,"hw:CARD=PCH,DEV=0",PyAlsaAudio (Linux only),1024,44100,2,16,2,"M2: USB Audio (hw:1,0)",SoundDevice (PortAudio),1024,44100,2,undefined,undefined,black,psycho,psycho,psycho,0,uniform,undefined,undefined,undefined,NA,0,0,6,6,6,6,0,NA,NA,NA,NA,0,0,6,0,6,6,NA,0,0,0,0,0,6,6,6,6,6,6,6,6,6,6,0,0,6,Fri Nov  3 10:24:35 2023,1000,2000,The main experiment item,yes,eye-trackingEarlyLate_motu-m2.osexp,/srv/data/research_data/Bob/esther/1EarlyLate,no,mono,no,18,no,white,no,yes,1080,psycho,2,3,/srv/data/research_data/Bob/esther/1EarlyLate/subject-1114.csv,psycho,Lentiform Loewenfeld,3.3.14,spaghetti.jpg,rain.jpg,shower.jpg,pizza.jpg,0,space,NA,NA,NA,space,space,NA,space,16388.00883,NA,NA,NA,10977.2718,12664.99996,NA,16388.00883,2,psycho,1024,2,48000,-16,experiment,1114,even,NA,NA,8256.081104,137939.261,136939.095,136938.9241,136939.172,19282.619,NA,NA,NA,NA,8304.776192,51988.55209,139956.11,19282.60016,143138.1381,145185.0471,NA,103955.3452,19323.86899,4512.962103,51970.25108,NA,139955.97,143137.9731,145184.8722,145184.9871,137955.811,139956.059,143138.0751,137955.8811,137955.9281,137955.6561,64653.90205,143137.8751,145184.6681,139956.1532,143138.3061,120343.658,136918.267,New experiment,0,0,0,yes,1920
undefined,undefined,23_L_waarde_hoekig.wav,16,2,"hw:CARD=PCH,DEV=0",PyAlsaAudio (Linux only),1024,44100,2,16,2,"M2: USB Audio (hw:1,0)",SoundDevice (PortAudio),1024,44100,2,undefined,undefined,black,psycho,psycho,psycho,0,uniform,undefined,undefined,undefined,NA,0,0,7,7,7,7,0,NA,NA,NA,NA,0,0,7,0,7,7,NA,0,0,0,0,0,7,7,7,7,7,7,7,7,7,7,0,0,7,Fri Nov  3 10:24:35 2023,1000,2000,The main experiment item,yes,eye-trackingEarlyLate_motu-m2.osexp,/srv/data/research_data/Bob/esther/1EarlyLate,no,mono,no,18,no,white,no,yes,1080,psycho,3,3,/srv/data/research_data/Bob/esther/1EarlyLate/subject-1114.csv,psycho,Lentiform Loewenfeld,3.3.14,popcorn.jpg,clown.jpg,dime.jpg,diamond.jpg,0,space,NA,NA,NA,space,space,NA,space,16388.00883,NA,NA,NA,10977.2718,12664.99996,NA,16388.00883,2,psycho,1024,2,48000,-16,experiment,1114,even,NA,NA,8256.081104,146372.648,145372.5212,145372.355,145372.6001,19282.619,NA,NA,NA,NA,8304.776192,51988.55209,148389.6921,19282.60016,151246.562,153595.402,NA,103955.3452,19323.86899,4512.962103,51970.25108,NA,148389.544,151246.3951,153595.233,153595.34,146389.3361,148389.636,151246.4972,146389.42,146389.4701,146389.1611,64653.90205,151246.294,153594.9991,148389.7431,151246.731,120343.658,145350.085,New experiment,0,0,0,yes,1920
undefined,undefined,1_L_dier_hinnikt.wav,16,2,"hw:CARD=PCH,DEV=0",PyAlsaAudio (Linux only),1024,44100,2,16,2,"M2: USB Audio (hw:1,0)",SoundDevice (PortAudio),1024,44100,2,undefined,undefined,black,psycho,psycho,psycho,0,uniform,undefined,undefined,undefined,NA,0,0,8,8,8,8,0,NA,NA,NA,NA,0,0,8,0,8,8,NA,0,0,0,0,0,8,8,8,8,8,8,8,8,8,8,0,0,8,Fri Nov  3 10:24:35 2023,1000,2000,The main experiment item,yes,eye-trackingEarlyLate_motu-m2.osexp,/srv/data/research_data/Bob/esther/1EarlyLate,no,mono,no,18,no,white,no,yes,1080,psycho,4,3,/srv/data/research_data/Bob/esther/1EarlyLate/subject-1114.csv,psycho,Lentiform Loewenfeld,3.3.14,skateboard.jpg,dog.jpg,horse.jpg,truck.jpg,0,space,NA,NA,NA,space,space,NA,space,16388.00883,NA,NA,NA,10977.2718,12664.99996,NA,16388.00883,2,psycho,1024,2,48000,-16,experiment,1114,even,NA,NA,8256.081104,154772.6071,153772.4671,153772.4071,153772.5492,19282.619,NA,NA,NA,NA,8304.776192,51988.55209,156789.747,19282.60016,159739.2352,161624.0652,NA,103955.3452,19323.86899,4512.962103,51970.25108,NA,156789.5942,159739.0721,161623.8961,161624.0051,154789.3951,156789.6841,159739.1741,154789.4771,154789.5272,154789.2191,64653.90205,159738.9731,161623.6651,156789.789,159739.4011,120343.658,153760.304,New experiment,0,0,0,yes,1920
undefined,undefined,22_L_herfst_neerslag.wav,16,2,"hw:CARD=PCH,DEV=0",PyAlsaAudio (Linux only),1024,44100,2,16,2,"M2: USB Audio (hw:1,0)",SoundDevice (PortAudio),1024,44100,2,undefined,undefined,black,psycho,psycho,psycho,0,uniform,undefined,undefined,undefined,NA,0,0,9,9,9,9,0,NA,NA,NA,NA,0,0,9,0,9,9,NA,0,0,0,0,0,9,9,9,9,9,9,9,9,9,9,0,0,9,Fri Nov  3 10:24:35 2023,1000,2000,The main experiment item,yes,eye-trackingEarlyLate_motu-m2.osexp,/srv/data/research_data/Bob/esther/1EarlyLate,no,mono,no,18,no,white,no,yes,1080,psycho,5,3,/srv/data/research_data/Bob/esther/1EarlyLate/subject-1114.csv,psycho,Lentiform Loewenfeld,3.3.14,rain.jpg,mushroom.jpg,hamburger.jpg,paw.jpg,0,space,NA,NA,NA,space,space,NA,space,16388.00883,NA,NA,NA,10977.2718,12664.99996,NA,16388.00883,2,psycho,1024,2,48000,-16,experiment,1114,even,NA,NA,8256.081104,162822.639,161822.4881,161822.4292,161822.5691,19282.619,NA,NA,NA,NA,8304.776192,51988.55209,164839.807,19282.60016,168300.329,170602.9811,NA,103955.3452,19323.86899,4512.962103,51970.25108,NA,164839.6602,168300.1652,170602.8171,170602.9201,162839.483,164839.7532,168300.2651,162839.566,162839.617,162839.3071,64653.90205,168300.066,170602.6821,164839.849,168300.493,120343.658,161807.816,New experiment,0,0,0,yes,1920
undefined,undefined,53_E_eten_Sinterklaas.wav,16,2,"hw:CARD=PCH,DEV=0",PyAlsaAudio (Linux only),1024,44100,2,16,2,"M2: USB Audio (hw:1,0)",SoundDevice (PortAudio),1024,44100,2,undefined,undefined,black,psycho,psycho,psycho,0,uniform,undefined,undefined,undefined,NA,0,0,10,10,10,10,0,NA,NA,NA,NA,0,0,10,0,10,10,NA,0,0,0,0,0,10,10,10,10,10,10,10,10,10,10,0,0,10,Fri Nov  3 10:24:35 2023,1000,2000,The main experiment item,yes,eye-trackingEarlyLate_motu-m2.osexp,/srv/data/research_data/Bob/esther/1EarlyLate,no,mono,no,18,no,white,no,yes,1080,psycho,6,3,/srv/data/research_data/Bob/esther/1EarlyLate/subject-1114.csv,psycho,Lentiform Loewenfeld,3.3.14,carrot.jpg,shoe.jpg,teepee.jpg,wheel.jpg,0,space,NA,NA,NA,space,space,NA,space,16388.00883,NA,NA,NA,10977.2718,12664.99996,NA,16388.00883,2,psycho,1024,2,48000,-16,experiment,1114,even,NA,NA,8256.081104,171789.413,170789.257,170789.1982,170789.3391,19282.619,NA,NA,NA,NA,8304.776192,51988.55209,173806.5171,19282.60016,176872.0961,178918.839,NA,103955.3452,19323.86899,4512.962103,51970.25108,NA,173806.375,176871.932,178918.6561,178918.7751,171806.165,173806.464,176872.0322,171806.2482,171806.298,171805.9881,64653.90205,176871.835,178918.498,173806.5581,176872.262,120343.658,170773.8001,New experiment,0,0,0,yes,1920
undefined,undefined,54_E_voorkant_zintuig.wav,16,2,"hw:CARD=PCH,DEV=0",PyAlsaAudio (Linux only),1024,44100,2,16,2,"M2: USB Audio (hw:1,0)",SoundDevice (PortAudio),1024,44100,2,undefined,undefined,black,psycho,psycho,psycho,0,uniform,undefined,undefined,undefined,NA,0,0,11,11,11,11,0,NA,NA,NA,NA,0,0,11,0,11,11,NA,0,0,0,0,0,11,11,11,11,11,11,11,11,11,11,0,0,11,Fri Nov  3 10:24:35 2023,1000,2000,The main experiment item,yes,eye-trackingEarlyLate_motu-m2.osexp,/srv/data/research_data/Bob/esther/1EarlyLate,no,mono,no,18,no,white,no,yes,1080,psycho,7,3,/srv/data/research_data/Bob/esther/1EarlyLate/subject-1114.csv,psycho,Lentiform Loewenfeld,3.3.14,whip.jpg,strawberry.jpg,ear.jpg,nose.jpg,0,space,NA,NA,NA,space,space,NA,space,16388.00883,NA,NA,NA,10977.2718,12664.99996,NA,16388.00883,2,psycho,1024,2,48000,-16,experiment,1114,even,NA,NA,8256.081104,180089.442,179089.277,179089.2172,179089.3581,19282.619,NA,NA,NA,NA,8304.776192,51988.55209,182106.42,19282.60016,185311.3501,186986.9702,NA,103955.3452,19323.86899,4512.962103,51970.25108,NA,182106.2751,185311.166,186986.758,186986.8741,180106.086,182106.365,185311.2791,180106.1721,180106.2241,180105.9091,64653.90205,185311.069,186986.5901,182106.462,185311.707,120343.658,179078.9111,New experiment,0,0,0,yes,1920
undefined,undefined,21_L_thee_tuit.wav,16,2,"hw:CARD=PCH,DEV=0",PyAlsaAudio (Linux only),1024,44100,2,16,2,"M2: USB Audio (hw:1,0)",SoundDevice (PortAudio),1024,44100,2,undefined,undefined,black,psycho,psycho,psycho,0,uniform,undefined,undefined,undefined,NA,0,0,12,12,12,12,0,NA,NA,NA,NA,0,0,12,0,12,12,NA,0,0,0,0,0,12,12,12,12,12,12,12,12,12,12,0,0,12,Fri Nov  3 10:24:35 2023,1000,2000,The main experiment item,yes,eye-trackingEarlyLate_motu-m2.osexp,/srv/data/research_data/Bob/esther/1EarlyLate,no,mono,no,18,no,white,no,yes,1080,psycho,8,3,/srv/data/research_data/Bob/esther/1EarlyLate/subject-1114.csv,psycho,Lentiform Loewenfeld,3.3.14,mug.jpg,kettle.jpg,tweezers.jpg,star.jpg,0,space,NA,NA,NA,space,space,NA,space,16388.00883,NA,NA,NA,10977.2718,12664.99996,NA,16388.00883,2,psycho,1024,2,48000,-16,experiment,1114,even,NA,NA,8256.081104,188172.9732,187172.8041,187172.636,187172.8811,19282.619,NA,NA,NA,NA,8304.776192,51988.55209,190189.8131,19282.60016,193116.2541,195837.0922,NA,103955.3452,19323.86899,4512.962103,51970.25108,NA,190189.671,193116.076,195836.9222,195837.034,188189.466,190189.7621,193116.1861,188189.5342,188189.5812,188189.321,64653.90205,193115.9711,195836.6861,190189.8541,193116.4281,120343.658,187149.93,New experiment,0,0,0,yes,1920
undefined,undefined,35_E_groente_huilen.wav,16,2,"hw:CARD=PCH,DEV=0",PyAlsaAudio (Linux only),1024,44100,2,16,2,"M2: USB Audio (hw:1,0)",SoundDevice (PortAudio),1024,44100,2,undefined,undefined,black,psycho,psycho,psycho,0,uniform,undefined,undefined,undefined,NA,0,0,13,13,13,13,0,NA,NA,NA,NA,0,0,13,0,13,13,NA,0,0,0,0,0,13,13,13,13,13,13,13,13,13,13,0,0,13,Fri Nov  3 10:24:35 2023,1000,2000,The main experiment item,yes,eye-trackingEarlyLate_motu-m2.osexp,/srv/data/research_data/Bob/esther/1EarlyLate,no,mono,no,18,no,white,no,yes,1080,psycho,9,3,/srv/data/research_data/Bob/esther/1EarlyLate/subject-1114.csv,psycho,Lentiform Loewenfeld,3.3.14,onion.jpg,hanger.jpg,tear.jpg,saddle.jpg,0,space,NA,NA,NA,space,space,NA,space,16388.00883,NA,NA,NA,10977.2718,12664.99996,NA,16388.00883,2,psycho,1024,2,48000,-16,experiment,1114,even,NA,NA,8256.081104,197006.207,196006.052,196005.9922,196006.1331,19282.619,NA,NA,NA,NA,8304.776192,51988.55209,199023.3581,19282.60016,201601.213,203322.7541,NA,103955.3452,19323.86899,4512.962103,51970.25108,NA,199023.2182,201601.042,203322.4871,203322.6142,197022.9981,199023.3052,201601.145,197023.083,197023.134,197022.819,64653.90205,201600.9431,203322.3441,199023.3991,201601.3892,120343.658,195994.7491,New experiment,0,0,0,yes,1920
undefined,undefined,46_E_astronomie_vergroten.wav,16,2,"hw:CARD=PCH,DEV=0",PyAlsaAudio (Linux only),1024,44100,2,16,2,"M2: USB Audio (hw:1,0)",SoundDevice (PortAudio),1024,44100,2,undefined,undefined,black,psycho,psycho,psycho,0,uniform,undefined,undefined,undefined,NA,0,0,14,14,14,14,0,NA,NA,NA,NA,0,0,14,0,14,14,NA,0,0,0,0,0,14,14,14,14,14,14,14,14,14,14,0,0,14,Fri Nov  3 10:24:35 2023,1000,2000,The main experiment item,yes,eye-trackingEarlyLate_motu-m2.osexp,/srv/data/research_data/Bob/esther/1EarlyLate,no,mono,no,18,no,white,no,yes,1080,psycho,10,3,/srv/data/research_data/Bob/esther/1EarlyLate/subject-1114.csv,psycho,Lentiform Loewenfeld,3.3.14,crab.jpg,basket.jpg,microscope.jpg,telescope.jpg,0,space,NA,NA,NA,space,space,NA,space,16388.00883,NA,NA,NA,10977.2718,12664.99996,NA,16388.00883,2,psycho,1024,2,48000,-16,experiment,1114,even,NA,NA,8256.081104,204506.377,203506.247,203506.0802,203506.326,19282.619,NA,NA,NA,NA,8304.776192,51988.55209,206523.4082,19282.60016,210355.1171,213703.0182,NA,103955.3452,19323.86899,4512.962103,51970.25108,NA,206523.263,210354.949,213702.852,213702.955,204523.0591,206523.3531,210355.051,204523.144,204523.1972,204522.8851,64653.90205,210354.851,213702.682,206523.4501,210355.2821,120343.658,203488.3652,New experiment,0,0,0,yes,1920
undefined,undefined,32_E_kou_gewei.wav,16,2,"hw:CARD=PCH,DEV=0",PyAlsaAudio (Linux only),1024,44100,2,16,2,"M2: USB Audio (hw:1,0)",SoundDevice (PortAudio),1024,44100,2,undefined,undefined,black,psycho,psycho,psycho,0,uniform,undefined,undefined,undefined,NA,0,0,15,15,15,15,0,NA,NA,NA,NA,0,0,15,0,15,15,NA,0,0,0,0,0,15,15,15,15,15,15,15,15,15,15,0,0,15,Fri Nov  3 10:24:35 2023,1000,2000,The main experiment item,yes,eye-trackingEarlyLate_motu-m2.osexp,/srv/data/research_data/Bob/esther/1EarlyLate,no,mono,no,18,no,white,no,yes,1080,psycho,11,3,/srv/data/research_data/Bob/esther/1EarlyLate/subject-1114.csv,psycho,Lentiform Loewenfeld,3.3.14,blimp.jpg,deer.jpg,moose.jpg,rope.jpg,0,space,NA,NA,NA,space,space,NA,space,16388.00883,NA,NA,NA,10977.2718,12664.99996,NA,16388.00883,2,psycho,1024,2,48000,-16,experiment,1114,even,NA,NA,8256.081104,214889.6492,213889.4851,213889.4241,213889.565,19282.619,NA,NA,NA,NA,8304.776192,51988.55209,216906.7221,19282.60016,220088.057,224433.912,NA,103955.3452,19323.86899,4512.962103,51970.25108,NA,216906.5812,220087.8961,224433.6951,224433.8272,214906.3802,216906.671,220087.9941,214906.4622,214906.5111,214906.203,64653.90205,220087.7991,224433.5232,216906.7712,220088.223,120343.658,213874.4411,New experiment,0,0,0,yes,1920
undefined,undefined,45_E_draagbaar_toetsen.wav,16,2,"hw:CARD=PCH,DEV=0",PyAlsaAudio (Linux only),1024,44100,2,16,2,"M2: USB Audio (hw:1,0)",SoundDevice (PortAudio),1024,44100,2,undefined,undefined,black,psycho,psycho,psycho,0,uniform,undefined,undefined,undefined,NA,0,0,16,16,16,16,0,NA,NA,NA,NA,0,0,16,0,16,16,NA,0,0,0,0,0,16,16,16,16,16,16,16,16,16,16,0,0,16,Fri Nov  3 10:24:35 2023,1000,2000,The main experiment item,yes,eye-trackingEarlyLate_motu-m2.osexp,/srv/data/research_data/Bob/esther/1EarlyLate,no,mono,no,18,no,white,no,yes,1080,psycho,12,3,/srv/data/research_data/Bob/esther/1EarlyLate/subject-1114.csv,psycho,Lentiform Loewenfeld,3.3.14,accordion.jpg,piano.jpg,cloud.jpg,king.jpg,0,space,NA,NA,NA,space,space,NA,space,16388.00883,NA,NA,NA,10977.2718,12664.99996,NA,16388.00883,2,psycho,1024,2,48000,-16,experiment,1114,even,NA,NA,8256.081104,225623.173,224623.0462,224622.8821,224623.1241,19282.619,NA,NA,NA,NA,8304.776192,51988.55209,227640.228,19282.60016,230450.0902,235678.988,NA,103955.3452,19323.86899,4512.962103,51970.25108,NA,227640.084,230449.923,235678.8261,235678.9281,225639.8871,227640.1742,230450.0251,225639.972,225640.0251,225639.6961,64653.90205,230449.8241,235678.6652,227640.27,230450.253,120343.658,224600.466,New experiment,0,0,0,yes,1920
undefined,undefined,33_E_touw_wind.wav,16,2,"hw:CARD=PCH,DEV=0",PyAlsaAudio (Linux only),1024,44100,2,16,2,"M2: USB Audio (hw:1,0)",SoundDevice (PortAudio),1024,44100,2,undefined,undefined,black,psycho,psycho,psycho,0,uniform,undefined,undefined,undefined,NA,0,0,17,17,17,17,0,NA,NA,NA,NA,0,0,17,0,17,17,NA,0,0,0,0,0,17,17,17,17,17,17,17,17,17,17,0,0,17,Fri Nov  3 10:24:35 2023,1000,2000,The main experiment item,yes,eye-trackingEarlyLate_motu-m2.osexp,/srv/data/research_data/Bob/esther/1EarlyLate,no,mono,no,18,no,white,no,yes,1080,psycho,13,3,/srv/data/research_data/Bob/esther/1EarlyLate/subject-1114.csv,psycho,Lentiform Loewenfeld,3.3.14,lawnmower.jpg,kite.jpg,crown.jpg,fan.jpg,0,space,NA,NA,NA,space,space,NA,space,16388.00883,NA,NA,NA,10977.2718,12664.99996,NA,16388.00883,2,psycho,1024,2,48000,-16,experiment,1114,even,NA,NA,8256.081104,236856.483,235856.3521,235856.2901,235856.4341,19282.619,NA,NA,NA,NA,8304.776192,51988.55209,238873.611,19282.60016,241962.61,243754.5261,NA,103955.3452,19323.86899,4512.962103,51970.25108,NA,238873.4701,241962.451,243754.3552,243754.4661,236873.266,238873.559,241962.549,236873.353,236873.4031,236873.0881,64653.90205,241962.353,243754.0791,238873.6541,241962.785,120343.658,235848.429,New experiment,0,0,0,yes,1920
undefined,undefined,19_L_reptiel_uitgestorven.wav,16,2,"hw:CARD=PCH,DEV=0",PyAlsaAudio (Linux only),1024,44100,2,16,2,"M2: USB Audio (hw:1,0)",SoundDevice (PortAudio),1024,44100,2,undefined,undefined,black,psycho,psycho,psycho,0,uniform,undefined,undefined,undefined,NA,0,0,18,18,18,18,0,NA,NA,NA,NA,0,0,18,0,18,18,NA,0,0,0,0,0,18,18,18,18,18,18,18,18,18,18,0,0,18,Fri Nov  3 10:24:35 2023,1000,2000,The main experiment item,yes,eye-trackingEarlyLate_motu-m2.osexp,/srv/data/research_data/Bob/esther/1EarlyLate,no,mono,no,18,no,white,no,yes,1080,psycho,14,3,/srv/data/research_data/Bob/esther/1EarlyLate/subject-1114.csv,psycho,Lentiform Loewenfeld,3.3.14,knife.jpg,box.jpg,alligator.jpg,dinosaur.jpg,0,space,NA,NA,NA,space,space,NA,space,16388.00883,NA,NA,NA,10977.2718,12664.99996,NA,16388.00883,2,psycho,1024,2,48000,-16,experiment,1114,even,NA,NA,8256.081104,244939.9641,243939.8251,243939.652,243939.9052,19282.619,NA,NA,NA,NA,8304.776192,51988.55209,246956.9812,19282.60016,250626.5521,252929.1551,NA,103955.3452,19323.86899,4512.962103,51970.25108,NA,246956.835,250626.3821,252928.9601,252929.08,244956.629,246956.9271,250626.4861,244956.7211,244956.785,244956.4271,64653.90205,250626.2851,252928.798,246957.0241,250626.7171,120343.658,243918.0691,New experiment,0,0,0,yes,1920
undefined,undefined,40_E_kookpitten_koken.wav,16,2,"hw:CARD=PCH,DEV=0",PyAlsaAudio (Linux only),1024,44100,2,16,2,"M2: USB Audio (hw:1,0)",SoundDevice (PortAudio),1024,44100,2,undefined,undefined,black,psycho,psycho,psycho,0,uniform,undefined,undefined,undefined,NA,0,0,19,19,19,19,0,NA,NA,NA,NA,0,0,19,0,19,19,NA,0,0,0,0,0,19,19,19,19,19,19,19,19,19,19,0,0,19,Fri Nov  3 10:24:35 2023,1000,2000,The main experiment item,yes,eye-trackingEarlyLate_motu-m2.osexp,/srv/data/research_data/Bob/esther/1EarlyLate,no,mono,no,18,no,white,no,yes,1080,psycho,15,3,/srv/data/research_data/Bob/esther/1EarlyLate/subject-1114.csv,psycho,Lentiform Loewenfeld,3.3.14,unicorn.jpg,pan.jpg,stove.jpg,toe.jpg,0,space,NA,NA,NA,space,space,NA,space,16388.00883,NA,NA,NA,10977.2718,12664.99996,NA,16388.00883,2,psycho,1024,2,48000,-16,experiment,1114,even,NA,NA,8256.081104,254106.708,253106.54,253106.3771,253106.6191,19282.619,NA,NA,NA,NA,8304.776192,51988.55209,256123.558,19282.60016,259072.7601,261212.641,NA,103955.3452,19323.86899,4512.962103,51970.25108,NA,256123.4162,259072.5851,261212.3652,261212.527,254123.2231,256123.5051,259072.6871,254123.296,254123.3461,254123.07,64653.90205,259072.4871,261212.147,256123.6022,259073.0622,120343.658,253087.641,New experiment,0,0,0,yes,1920
undefined,undefined,14_L_strand_beweegt.wav,16,2,"hw:CARD=PCH,DEV=0",PyAlsaAudio (Linux only),1024,44100,2,16,2,"M2: USB Audio (hw:1,0)",SoundDevice (PortAudio),1024,44100,2,undefined,undefined,black,psycho,psycho,psycho,0,uniform,undefined,undefined,undefined,NA,0,0,20,20,20,20,0,NA,NA,NA,NA,0,0,20,0,20,20,NA,0,0,0,0,0,20,20,20,20,20,20,20,20,20,20,0,0,20,Fri Nov  3 10:24:35 2023,1000,2000,The main experiment item,yes,eye-trackingEarlyLate_motu-m2.osexp,/srv/data/research_data/Bob/esther/1EarlyLate,no,mono,no,18,no,white,no,yes,1080,psycho,16,3,/srv/data/research_data/Bob/esther/1EarlyLate/subject-1114.csv,psycho,Lentiform Loewenfeld,3.3.14,dustpan.jpg,crab.jpg,trophy.jpg,shell.jpg,0,space,NA,NA,NA,space,space,NA,space,16388.00883,NA,NA,NA,10977.2718,12664.99996,NA,16388.00883,2,psycho,1024,2,48000,-16,experiment,1114,even,NA,NA,8256.081104,262389.9591,261389.8311,261389.7691,261389.9131,19282.619,NA,NA,NA,NA,8304.776192,51988.55209,264407.0361,19282.60016,266961.926,269054.4732,NA,103955.3452,19323.86899,4512.962103,51970.25108,NA,264406.893,266961.7631,269054.2691,269054.4,262406.6901,264406.9822,266961.864,262406.7831,262406.8351,262406.5111,64653.90205,266961.6551,269054.0712,264407.078,266962.091,120343.658,261377.6932,New experiment,0,0,0,yes,1920
undefined,undefined,27_L_geloof_kwaad.wav,16,2,"hw:CARD=PCH,DEV=0",PyAlsaAudio (Linux only),1024,44100,2,16,2,"M2: USB Audio (hw:1,0)",SoundDevice (PortAudio),1024,44100,2,undefined,undefined,black,psycho,psycho,psycho,0,uniform,undefined,undefined,undefined,NA,0,0,21,21,21,21,0,NA,NA,NA,NA,0,0,21,0,21,21,NA,0,0,0,0,0,21,21,21,21,21,21,21,21,21,21,0,0,21,Fri Nov  3 10:24:35 2023,1000,2000,The main experiment item,yes,eye-trackingEarlyLate_motu-m2.osexp,/srv/data/research_data/Bob/esther/1EarlyLate,no,mono,no,18,no,white,no,yes,1080,psycho,17,3,/srv/data/research_data/Bob/esther/1EarlyLate/subject-1114.csv,psycho,Lentiform Loewenfeld,3.3.14,closet.jpg,scarf.jpg,cross.jpg,devil.jpg,0,space,NA,NA,NA,space,space,NA,space,16388.00883,NA,NA,NA,10977.2718,12664.99996,NA,16388.00883,2,psycho,1024,2,48000,-16,experiment,1114,even,NA,NA,8256.081104,270240.191,269240.0301,269239.866,269240.1071,19282.619,NA,NA,NA,NA,8304.776192,51988.55209,272257.1912,19282.60016,276344.835,278298.5182,NA,103955.3452,19323.86899,4512.962103,51970.25108,NA,272257.0522,276344.6641,278298.3611,278298.461,270256.84,272257.139,276344.774,270256.922,270256.9702,270256.6512,64653.90205,276344.5671,278298.207,272257.231,276345.001,120343.658,269220.1152,New experiment,0,0,0,yes,1920
undefined,undefined,41_E_tanden_gereedschap.wav,16,2,"hw:CARD=PCH,DEV=0",PyAlsaAudio (Linux only),1024,44100,2,16,2,"M2: USB Audio (hw:1,0)",SoundDevice (PortAudio),1024,44100,2,undefined,undefined,black,psycho,psycho,psycho,0,uniform,undefined,undefined,undefined,NA,0,0,22,22,22,22,0,NA,NA,NA,NA,0,0,22,0,22,22,NA,0,0,0,0,0,22,22,22,22,22,22,22,22,22,22,0,0,22,Fri Nov  3 10:24:35 2023,1000,2000,The main experiment item,yes,eye-trackingEarlyLate_motu-m2.osexp,/srv/data/research_data/Bob/esther/1EarlyLate,no,mono,no,18,no,white,no,yes,1080,psycho,18,3,/srv/data/research_data/Bob/esther/1EarlyLate/subject-1114.csv,psycho,Lentiform Loewenfeld,3.3.14,chicken.jpg,saw.jpg,alarmclock.jpg,hammer.jpg,0,space,NA,NA,NA,space,space,NA,space,16388.00883,NA,NA,NA,10977.2718,12664.99996,NA,16388.00883,2,psycho,1024,2,48000,-16,experiment,1114,even,NA,NA,8256.081104,279473.4731,278473.3021,278473.242,278473.382,19282.619,NA,NA,NA,NA,8304.776192,51988.55209,281490.617,19282.60016,284114.8732,286417.778,NA,103955.3452,19323.86899,4512.962103,51970.25108,NA,281490.4721,284114.701,286417.6071,286417.7091,279490.2492,281490.562,284114.809,279490.334,279490.3851,279490.0701,64653.90205,284114.604,286417.4092,281490.659,284115.0382,120343.658,278460.6311,New experiment,0,0,0,yes,1920
undefined,undefined,12_L_speeltuin_tweepersonen.wav,16,2,"hw:CARD=PCH,DEV=0",PyAlsaAudio (Linux only),1024,44100,2,16,2,"M2: USB Audio (hw:1,0)",SoundDevice (PortAudio),1024,44100,2,undefined,undefined,black,psycho,psycho,psycho,0,uniform,undefined,undefined,undefined,NA,0,0,23,23,23,23,0,NA,NA,NA,NA,0,0,23,0,23,23,NA,0,0,0,0,0,23,23,23,23,23,23,23,23,23,23,0,0,23,Fri Nov  3 10:24:35 2023,1000,2000,The main experiment item,yes,eye-trackingEarlyLate_motu-m2.osexp,/srv/data/research_data/Bob/esther/1EarlyLate,no,mono,no,18,no,white,no,yes,1080,psycho,19,3,/srv/data/research_data/Bob/esther/1EarlyLate/subject-1114.csv,psycho,Lentiform Loewenfeld,3.3.14,seesaw.jpg,cow.jpg,swing.jpg,palmtree.jpg,0,space,NA,NA,NA,space,space,NA,space,16388.00883,NA,NA,NA,10977.2718,12664.99996,NA,16388.00883,2,psycho,1024,2,48000,-16,experiment,1114,even,NA,NA,8256.081104,287606.8501,286606.7181,286606.5521,286606.8032,19282.619,NA,NA,NA,NA,8304.776192,51988.55209,289624.1271,19282.60016,293200.911,299102.7222,NA,103955.3452,19323.86899,4512.962103,51970.25108,NA,289623.8952,293200.7341,299102.56,299102.6621,287623.621,289624.0251,293200.8481,287623.7111,287623.7721,287623.446,64653.90205,293200.6352,299102.4041,289624.182,293201.0782,120343.658,286585.7122,New experiment,0,0,0,yes,1920
undefined,undefined,52_E_toetsen_schrijver.wav,16,2,"hw:CARD=PCH,DEV=0",PyAlsaAudio (Linux only),1024,44100,2,16,2,"M2: USB Audio (hw:1,0)",SoundDevice (PortAudio),1024,44100,2,undefined,undefined,black,psycho,psycho,psycho,0,uniform,undefined,undefined,undefined,NA,0,0,24,24,24,24,0,NA,NA,NA,NA,0,0,24,0,24,24,NA,0,0,0,0,0,24,24,24,24,24,24,24,24,24,24,0,0,24,Fri Nov  3 10:24:35 2023,1000,2000,The main experiment item,yes,eye-trackingEarlyLate_motu-m2.osexp,/srv/data/research_data/Bob/esther/1EarlyLate,no,mono,no,18,no,white,no,yes,1080,psycho,20,3,/srv/data/research_data/Bob/esther/1EarlyLate/subject-1114.csv,psycho,Lentiform Loewenfeld,3.3.14,pen.jpg,typewriter.jpg,ashtray.jpg,tape.jpg,0,space,NA,NA,NA,space,space,NA,space,16388.00883,NA,NA,NA,10977.2718,12664.99996,NA,16388.00883,2,psycho,1024,2,48000,-16,experiment,1114,even,NA,NA,8256.081104,300273.5801,299273.442,299273.381,299273.524,19282.619,NA,NA,NA,NA,8304.776192,51988.55209,302290.6461,19282.60016,305194.0551,307797.7152,NA,103955.3452,19323.86899,4512.962103,51970.25108,NA,302290.5052,305193.8901,307797.5562,307797.6561,300290.303,302290.5941,305193.9921,300290.385,300290.436,300290.127,64653.90205,305193.7912,307797.4041,302290.688,305194.2201,120343.658,299262.356,New experiment,0,0,0,yes,1920
undefined,undefined,11_L_sluiten_spijkerbroek.wav,16,2,"hw:CARD=PCH,DEV=0",PyAlsaAudio (Linux only),1024,44100,2,16,2,"M2: USB Audio (hw:1,0)",SoundDevice (PortAudio),1024,44100,2,undefined,undefined,black,psycho,psycho,psycho,0,uniform,undefined,undefined,undefined,NA,0,0,25,25,25,25,0,NA,NA,NA,NA,0,0,25,0,25,25,NA,0,0,0,0,0,25,25,25,25,25,25,25,25,25,25,0,0,25,Fri Nov  3 10:24:35 2023,1000,2000,The main experiment item,yes,eye-trackingEarlyLate_motu-m2.osexp,/srv/data/research_data/Bob/esther/1EarlyLate,no,mono,no,18,no,white,no,yes,1080,psycho,21,3,/srv/data/research_data/Bob/esther/1EarlyLate/subject-1114.csv,psycho,Lentiform Loewenfeld,3.3.14,door.jpg,hoe.jpg,cactus.jpg,zipper.jpg,0,space,NA,NA,NA,space,space,NA,space,16388.00883,NA,NA,NA,10977.2718,12664.99996,NA,16388.00883,2,psycho,1024,2,48000,-16,experiment,1114,even,NA,NA,8256.081104,308973.649,307973.479,307973.4192,307973.5632,19282.619,NA,NA,NA,NA,8304.776192,51988.55209,310990.555,19282.60016,314566.8671,316961.6771,NA,103955.3452,19323.86899,4512.962103,51970.25108,NA,310990.4132,314566.6831,316961.5152,316961.616,308990.226,310990.5021,314566.802,308990.2971,308990.3491,308990.0792,64653.90205,314566.5891,316961.319,310990.597,314567.0321,120343.658,307960.8021,New experiment,0,0,0,yes,1920
undefined,undefined,30_E_keuken_scherp.wav,16,2,"hw:CARD=PCH,DEV=0",PyAlsaAudio (Linux only),1024,44100,2,16,2,"M2: USB Audio (hw:1,0)",SoundDevice (PortAudio),1024,44100,2,undefined,undefined,black,psycho,psycho,psycho,0,uniform,undefined,undefined,undefined,NA,0,0,26,26,26,26,0,NA,NA,NA,NA,0,0,26,0,26,26,NA,0,0,0,0,0,26,26,26,26,26,26,26,26,26,26,0,0,26,Fri Nov  3 10:24:35 2023,1000,2000,The main experiment item,yes,eye-trackingEarlyLate_motu-m2.osexp,/srv/data/research_data/Bob/esther/1EarlyLate,no,mono,no,18,no,white,no,yes,1080,psycho,22,3,/srv/data/research_data/Bob/esther/1EarlyLate/subject-1114.csv,psycho,Lentiform Loewenfeld,3.3.14,stethoscope.jpg,bear.jpg,knife.jpg,sword.jpg,0,space,NA,NA,NA,space,space,NA,space,16388.00883,NA,NA,NA,10977.2718,12664.99996,NA,16388.00883,2,psycho,1024,2,48000,-16,experiment,1114,even,NA,NA,8256.081104,318123.678,317123.5502,317123.4901,317123.6281,19282.619,NA,NA,NA,NA,8304.776192,51988.55209,320140.7011,19282.60016,323415.307,325810.1802,NA,103955.3452,19323.86899,4512.962103,51970.25108,NA,320140.5602,323415.139,325810.024,325810.123,318140.3611,320140.65,323415.2391,318140.4421,318140.4901,318140.182,64653.90205,323415.041,325809.8311,320140.7471,323415.478,120343.658,317114.5911,New experiment,0,0,0,yes,1920
undefined,undefined,26_L_feestje_opblazen.wav,16,2,"hw:CARD=PCH,DEV=0",PyAlsaAudio (Linux only),1024,44100,2,16,2,"M2: USB Audio (hw:1,0)",SoundDevice (PortAudio),1024,44100,2,undefined,undefined,black,psycho,psycho,psycho,0,uniform,undefined,undefined,undefined,NA,0,0,27,27,27,27,0,NA,NA,NA,NA,0,0,27,0,27,27,NA,0,0,0,0,0,27,27,27,27,27,27,27,27,27,27,0,0,27,Fri Nov  3 10:24:35 2023,1000,2000,The main experiment item,yes,eye-trackingEarlyLate_motu-m2.osexp,/srv/data/research_data/Bob/esther/1EarlyLate,no,mono,no,18,no,white,no,yes,1080,psycho,23,3,/srv/data/research_data/Bob/esther/1EarlyLate/subject-1114.csv,psycho,Lentiform Loewenfeld,3.3.14,balloon.jpg,cake.jpg,mitt.jpg,fly.jpg,0,space,NA,NA,NA,space,space,NA,space,16388.00883,NA,NA,NA,10977.2718,12664.99996,NA,16388.00883,2,psycho,1024,2,48000,-16,experiment,1114,even,NA,NA,8256.081104,326990.432,325990.288,325990.2282,325990.3691,19282.619,NA,NA,NA,NA,8304.776192,51988.55209,329007.5741,19282.60016,332026.494,333957.293,NA,103955.3452,19323.86899,4512.962103,51970.25108,NA,329007.431,332026.33,333957.0172,333957.1261,327007.2172,329007.5212,332026.432,327007.2992,327007.3481,327007.041,64653.90205,332026.233,333956.857,329007.6151,332026.66,120343.658,325976.9261,New experiment,0,0,0,yes,1920
undefined,undefined,17_L_knaagdier_piept.wav,16,2,"hw:CARD=PCH,DEV=0",PyAlsaAudio (Linux only),1024,44100,2,16,2,"M2: USB Audio (hw:1,0)",SoundDevice (PortAudio),1024,44100,2,undefined,undefined,black,psycho,psycho,psycho,0,uniform,undefined,undefined,undefined,NA,0,0,28,28,28,28,0,NA,NA,NA,NA,0,0,28,0,28,28,NA,0,0,0,0,0,28,28,28,28,28,28,28,28,28,28,0,0,28,Fri Nov  3 10:24:35 2023,1000,2000,The main experiment item,yes,eye-trackingEarlyLate_motu-m2.osexp,/srv/data/research_data/Bob/esther/1EarlyLate,no,mono,no,18,no,white,no,yes,1080,psycho,24,3,/srv/data/research_data/Bob/esther/1EarlyLate/subject-1114.csv,psycho,Lentiform Loewenfeld,3.3.14,beaver.jpg,mouse.jpg,bottle.jpg,rug.jpg,0,space,NA,NA,NA,space,space,NA,space,16388.00883,NA,NA,NA,10977.2718,12664.99996,NA,16388.00883,2,psycho,1024,2,48000,-16,experiment,1114,even,NA,NA,8256.081104,335140.5981,334140.4691,334140.295,334140.5461,19282.619,NA,NA,NA,NA,8304.776192,51988.55209,337157.608,19282.60016,340153.686,342084.305,NA,103955.3452,19323.86899,4512.962103,51970.25108,NA,337157.4662,340153.523,342084.131,342084.24,335157.28,337157.5541,340153.6231,335157.3691,335157.4221,335157.1062,64653.90205,340153.425,342083.971,337157.649,340153.862,120343.658,334119.844,New experiment,0,0,0,yes,1920
undefined,undefined,47_E_afzender_post.wav,16,2,"hw:CARD=PCH,DEV=0",PyAlsaAudio (Linux only),1024,44100,2,16,2,"M2: USB Audio (hw:1,0)",SoundDevice (PortAudio),1024,44100,2,undefined,undefined,black,psycho,psycho,psycho,0,uniform,undefined,undefined,undefined,NA,0,0,29,29,29,29,0,NA,NA,NA,NA,0,0,29,0,29,29,NA,0,0,0,0,0,29,29,29,29,29,29,29,29,29,29,0,0,29,Fri Nov  3 10:24:35 2023,1000,2000,The main experiment item,yes,eye-trackingEarlyLate_motu-m2.osexp,/srv/data/research_data/Bob/esther/1EarlyLate,no,mono,no,18,no,white,no,yes,1080,psycho,25,3,/srv/data/research_data/Bob/esther/1EarlyLate/subject-1114.csv,psycho,Lentiform Loewenfeld,3.3.14,wateringcan.jpg,skis.jpg,letter.jpg,mailbox.jpg,0,space,NA,NA,NA,space,space,NA,space,16388.00883,NA,NA,NA,10977.2718,12664.99996,NA,16388.00883,2,psycho,1024,2,48000,-16,experiment,1114,even,NA,NA,8256.081104,343257.755,342257.6101,342257.5512,342257.6921,19282.619,NA,NA,NA,NA,8304.776192,51988.55209,345274.2472,19282.60016,348224.0591,351989.953,NA,103955.3452,19323.86899,4512.962103,51970.25108,NA,345274.1051,348223.8941,351989.7981,351989.8951,343273.886,345274.1952,348223.9971,343273.9692,343274.018,343273.8211,64653.90205,348223.794,351989.5971,345274.287,348224.2231,120343.658,342250.1671,New experiment,0,0,0,yes,1920
undefined,undefined,25_L_Egypte_bulten.wav,16,2,"hw:CARD=PCH,DEV=0",PyAlsaAudio (Linux only),1024,44100,2,16,2,"M2: USB Audio (hw:1,0)",SoundDevice (PortAudio),1024,44100,2,undefined,undefined,black,psycho,psycho,psycho,0,uniform,undefined,undefined,undefined,NA,0,0,30,30,30,30,0,NA,NA,NA,NA,0,0,30,0,30,30,NA,0,0,0,0,0,30,30,30,30,30,30,30,30,30,30,0,0,30,Fri Nov  3 10:24:35 2023,1000,2000,The main experiment item,yes,eye-trackingEarlyLate_motu-m2.osexp,/srv/data/research_data/Bob/esther/1EarlyLate,no,mono,no,18,no,white,no,yes,1080,psycho,26,3,/srv/data/research_data/Bob/esther/1EarlyLate/subject-1114.csv,psycho,Lentiform Loewenfeld,3.3.14,pyramid.jpg,camel.jpg,pliers.jpg,cell.jpg,0,space,NA,NA,NA,space,space,NA,space,16388.00883,NA,NA,NA,10977.2718,12664.99996,NA,16388.00883,2,psycho,1024,2,48000,-16,experiment,1114,even,NA,NA,8256.081104,353174.015,352173.8732,352173.696,352173.9511,19282.619,NA,NA,NA,NA,8304.776192,51988.55209,355191.134,19282.60016,358280.3202,359956.013,NA,103955.3452,19323.86899,4512.962103,51970.25108,NA,355190.9921,358280.1571,359955.853,359955.956,353190.773,355191.081,358280.257,353190.855,353190.9041,353190.593,64653.90205,358280.0591,359955.723,355191.1762,358280.4861,120343.658,352155.0572,New experiment,0,0,0,yes,1920
undefined,undefined,16_L_vangen_deurtje.wav,16,2,"hw:CARD=PCH,DEV=0",PyAlsaAudio (Linux only),1024,44100,2,16,2,"M2: USB Audio (hw:1,0)",SoundDevice (PortAudio),1024,44100,2,undefined,undefined,black,psycho,psycho,psycho,0,uniform,undefined,undefined,undefined,NA,0,0,31,31,31,31,0,NA,NA,NA,NA,0,0,31,0,31,31,NA,0,0,0,0,0,31,31,31,31,31,31,31,31,31,31,0,0,31,Fri Nov  3 10:24:35 2023,1000,2000,The main experiment item,yes,eye-trackingEarlyLate_motu-m2.osexp,/srv/data/research_data/Bob/esther/1EarlyLate,no,mono,no,18,no,white,no,yes,1080,psycho,27,3,/srv/data/research_data/Bob/esther/1EarlyLate/subject-1114.csv,psycho,Lentiform Loewenfeld,3.3.14,sun.jpg,top.jpg,cage.jpg,mousetrap.jpg,0,space,NA,NA,NA,space,space,NA,space,16388.00883,NA,NA,NA,10977.2718,12664.99996,NA,16388.00883,2,psycho,1024,2,48000,-16,experiment,1114,even,NA,NA,8256.081104,361140.7452,360140.6221,360140.4591,360140.6982,19282.619,NA,NA,NA,NA,8304.776192,51988.55209,363157.835,19282.60016,366432.647,368781.8911,NA,103955.3452,19323.86899,4512.962103,51970.25108,NA,363157.686,366432.4851,368781.6191,368781.8041,361157.4891,363157.7811,366432.585,361157.5701,361157.6202,361157.316,64653.90205,366432.3931,368781.4012,363157.877,366432.9841,120343.658,360122.1402,New experiment,0,0,0,yes,1920
undefined,undefined,5_L_geluid_antenne.wav,16,2,"hw:CARD=PCH,DEV=0",PyAlsaAudio (Linux only),1024,44100,2,16,2,"M2: USB Audio (hw:1,0)",SoundDevice (PortAudio),1024,44100,2,undefined,undefined,black,psycho,psycho,psycho,0,uniform,undefined,undefined,undefined,NA,0,0,32,32,32,32,0,NA,NA,NA,NA,0,0,32,0,32,32,NA,0,0,0,0,0,32,32,32,32,32,32,32,32,32,32,0,0,32,Fri Nov  3 10:24:35 2023,1000,2000,The main experiment item,yes,eye-trackingEarlyLate_motu-m2.osexp,/srv/data/research_data/Bob/esther/1EarlyLate,no,mono,no,18,no,white,no,yes,1080,psycho,28,3,/srv/data/research_data/Bob/esther/1EarlyLate/subject-1114.csv,psycho,Lentiform Loewenfeld,3.3.14,glass.jpg,speaker.jpg,RADIO1.jpg,shovel.jpg,0,space,NA,NA,NA,space,space,NA,space,16388.00883,NA,NA,NA,10977.2718,12664.99996,NA,16388.00883,2,psycho,1024,2,48000,-16,experiment,1114,even,NA,NA,8256.081104,369957.4201,368957.279,368957.1152,368957.356,19282.619,NA,NA,NA,NA,8304.776192,51988.55209,371974.5111,19282.60016,375434.608,377620.054,NA,103955.3452,19323.86899,4512.962103,51970.25108,NA,371974.3712,375434.4501,377619.899,377619.997,369974.196,371974.4601,375434.5481,369974.277,369974.324,369974.02,64653.90205,375434.3522,377619.7851,371974.5522,375434.7851,120343.658,368939.3821,New experiment,0,0,0,yes,1920
undefined,undefined,51_E_water_schoonmaken.wav,16,2,"hw:CARD=PCH,DEV=0",PyAlsaAudio (Linux only),1024,44100,2,16,2,"M2: USB Audio (hw:1,0)",SoundDevice (PortAudio),1024,44100,2,undefined,undefined,black,psycho,psycho,psycho,0,uniform,undefined,undefined,undefined,NA,0,0,33,33,33,33,0,NA,NA,NA,NA,0,0,33,0,33,33,NA,0,0,0,0,0,33,33,33,33,33,33,33,33,33,33,0,0,33,Fri Nov  3 10:24:35 2023,1000,2000,The main experiment item,yes,eye-trackingEarlyLate_motu-m2.osexp,/srv/data/research_data/Bob/esther/1EarlyLate,no,mono,no,18,no,white,no,yes,1080,psycho,29,3,/srv/data/research_data/Bob/esther/1EarlyLate/subject-1114.csv,psycho,Lentiform Loewenfeld,3.3.14,lobster.jpg,pumpkin.jpg,washingmachine.jpg,vacuum.jpg,0,space,NA,NA,NA,space,space,NA,space,16388.00883,NA,NA,NA,10977.2718,12664.99996,NA,16388.00883,2,psycho,1024,2,48000,-16,experiment,1114,even,NA,NA,8256.081104,378807.4841,377807.3511,377807.184,377807.43,19282.619,NA,NA,NA,NA,8304.776192,51988.55209,380824.641,19282.60016,384447.2082,386587.0571,NA,103955.3452,19323.86899,4512.962103,51970.25108,NA,380824.501,384447.046,386586.884,386586.9951,378824.2781,380824.589,384447.1462,378824.3601,378824.409,378824.1041,64653.90205,384446.9481,386586.647,380824.6841,384447.372,120343.658,377790.838,New experiment,0,0,0,yes,1920
undefined,undefined,4_L_vervoer_conducteurs.wav,16,2,"hw:CARD=PCH,DEV=0",PyAlsaAudio (Linux only),1024,44100,2,16,2,"M2: USB Audio (hw:1,0)",SoundDevice (PortAudio),1024,44100,2,undefined,undefined,black,psycho,psycho,psycho,0,uniform,undefined,undefined,undefined,NA,0,0,34,34,34,34,0,NA,NA,NA,NA,0,0,34,0,34,34,NA,0,0,0,0,0,34,34,34,34,34,34,34,34,34,34,0,0,34,Fri Nov  3 10:24:35 2023,1000,2000,The main experiment item,yes,eye-trackingEarlyLate_motu-m2.osexp,/srv/data/research_data/Bob/esther/1EarlyLate,no,mono,no,18,no,white,no,yes,1080,psycho,30,3,/srv/data/research_data/Bob/esther/1EarlyLate/subject-1114.csv,psycho,Lentiform Loewenfeld,3.3.14,train.jpg,butter.jpg,car.jpg,cast.jpg,0,space,NA,NA,NA,space,space,NA,space,16388.00883,NA,NA,NA,10977.2718,12664.99996,NA,16388.00883,2,psycho,1024,2,48000,-16,experiment,1114,even,NA,NA,8256.081104,387757.725,386757.5672,386757.5061,386757.6542,19282.619,NA,NA,NA,NA,8304.776192,51988.55209,389774.7982,19282.60016,392793.992,395049.943,NA,103955.3452,19323.86899,4512.962103,51970.25108,NA,389774.5571,392793.8161,395049.7811,395049.8831,387774.3342,389774.6842,392793.9272,387774.4181,387774.4691,387774.1561,64653.90205,392793.689,395049.572,389774.853,392794.1561,120343.658,386750.4451,New experiment,0,0,0,yes,1920
undefined,undefined,24_L_vissen_haak.wav,16,2,"hw:CARD=PCH,DEV=0",PyAlsaAudio (Linux only),1024,44100,2,16,2,"M2: USB Audio (hw:1,0)",SoundDevice (PortAudio),1024,44100,2,undefined,undefined,black,psycho,psycho,psycho,0,uniform,undefined,undefined,undefined,NA,0,0,35,35,35,35,0,NA,NA,NA,NA,0,0,35,0,35,35,NA,0,0,0,0,0,35,35,35,35,35,35,35,35,35,35,0,0,35,Fri Nov  3 10:24:35 2023,1000,2000,The main experiment item,yes,eye-trackingEarlyLate_motu-m2.osexp,/srv/data/research_data/Bob/esther/1EarlyLate,no,mono,no,18,no,white,no,yes,1080,psycho,31,3,/srv/data/research_data/Bob/esther/1EarlyLate/subject-1114.csv,psycho,Lentiform Loewenfeld,3.3.14,genie.jpg,rabbit.jpg,fishingpole.jpg,net.jpg,0,space,NA,NA,NA,space,space,NA,space,16388.00883,NA,NA,NA,10977.2718,12664.99996,NA,16388.00883,2,psycho,1024,2,48000,-16,experiment,1114,even,NA,NA,8256.081104,396224.2091,395224.0751,395224.015,395224.1561,19282.619,NA,NA,NA,NA,8304.776192,51988.55209,398241.3461,19282.60016,401585.258,403934.2461,NA,103955.3452,19323.86899,4512.962103,51970.25108,NA,398241.2031,401585.0852,403933.9411,403934.108,396241.009,398241.2932,401585.1932,396241.092,396241.1411,396240.8352,64653.90205,401584.9881,403933.7201,398241.3871,401585.423,120343.658,395207.9661,New experiment,0,0,0,yes,1920
undefined,undefined,29_E_montuur_glas.wav,16,2,"hw:CARD=PCH,DEV=0",PyAlsaAudio (Linux only),1024,44100,2,16,2,"M2: USB Audio (hw:1,0)",SoundDevice (PortAudio),1024,44100,2,undefined,undefined,black,psycho,psycho,psycho,0,uniform,undefined,undefined,undefined,NA,0,0,36,36,36,36,0,NA,NA,NA,NA,0,0,36,0,36,36,NA,0,0,0,0,0,36,36,36,36,36,36,36,36,36,36,0,0,36,Fri Nov  3 10:24:35 2023,1000,2000,The main experiment item,yes,eye-trackingEarlyLate_motu-m2.osexp,/srv/data/research_data/Bob/esther/1EarlyLate,no,mono,no,18,no,white,no,yes,1080,psycho,32,3,/srv/data/research_data/Bob/esther/1EarlyLate/subject-1114.csv,psycho,Lentiform Loewenfeld,3.3.14,window.jpg,microphone.jpg,tank1.jpg,glasses.jpg,0,space,NA,NA,NA,space,space,NA,space,16388.00883,NA,NA,NA,10977.2718,12664.99996,NA,16388.00883,2,psycho,1024,2,48000,-16,experiment,1114,even,NA,NA,8256.081104,405107.6381,404107.4882,404107.4271,404107.5702,19282.619,NA,NA,NA,NA,8304.776192,51988.55209,407124.5801,19282.60016,409818.542,411865.3491,NA,103955.3452,19323.86899,4512.962103,51970.25108,NA,407124.439,409818.3632,411865.185,411865.2911,405124.2652,407124.5282,409818.4721,405124.337,405124.3851,405124.1162,64653.90205,409818.265,411865,407124.6221,409818.707,120343.658,404096.781,New experiment,0,0,0,yes,1920
undefined,undefined,7_L_dierentuin_slurf.wav,16,2,"hw:CARD=PCH,DEV=0",PyAlsaAudio (Linux only),1024,44100,2,16,2,"M2: USB Audio (hw:1,0)",SoundDevice (PortAudio),1024,44100,2,undefined,undefined,black,psycho,psycho,psycho,0,uniform,undefined,undefined,undefined,NA,0,0,37,37,37,37,0,NA,NA,NA,NA,0,0,37,0,37,37,NA,0,0,0,0,0,37,37,37,37,37,37,37,37,37,37,0,0,37,Fri Nov  3 10:24:35 2023,1000,2000,The main experiment item,yes,eye-trackingEarlyLate_motu-m2.osexp,/srv/data/research_data/Bob/esther/1EarlyLate,no,mono,no,18,no,white,no,yes,1080,psycho,33,3,/srv/data/research_data/Bob/esther/1EarlyLate/subject-1114.csv,psycho,Lentiform Loewenfeld,3.3.14,monkey.jpg,unicycle.jpg,couch.jpg,elephant.jpg,0,space,NA,NA,NA,space,space,NA,space,16388.00883,NA,NA,NA,10977.2718,12664.99996,NA,16388.00883,2,psycho,1024,2,48000,-16,experiment,1114,even,NA,NA,8256.081104,413040.9551,412040.8061,412040.7431,412040.8871,19282.619,NA,NA,NA,NA,8304.776192,51988.55209,415058.121,19282.60016,418054.3962,420148.247,NA,103955.3452,19323.86899,4512.962103,51970.25108,NA,415057.9782,418054.229,420148.083,420148.185,413057.791,415058.068,418054.332,413057.8761,413057.9271,413057.605,64653.90205,418054.132,420147.891,415058.1632,418054.5621,120343.658,412027.0422,New experiment,0,0,0,yes,1920
undefined,undefined,15_L_tijd_bandje.wav,16,2,"hw:CARD=PCH,DEV=0",PyAlsaAudio (Linux only),1024,44100,2,16,2,"M2: USB Audio (hw:1,0)",SoundDevice (PortAudio),1024,44100,2,undefined,undefined,black,psycho,psycho,psycho,0,uniform,undefined,undefined,undefined,NA,0,0,38,38,38,38,0,NA,NA,NA,NA,0,0,38,0,38,38,NA,0,0,0,0,0,38,38,38,38,38,38,38,38,38,38,0,0,38,Fri Nov  3 10:24:35 2023,1000,2000,The main experiment item,yes,eye-trackingEarlyLate_motu-m2.osexp,/srv/data/research_data/Bob/esther/1EarlyLate,no,mono,no,18,no,white,no,yes,1080,psycho,34,3,/srv/data/research_data/Bob/esther/1EarlyLate/subject-1114.csv,psycho,Lentiform Loewenfeld,3.3.14,sausage.jpg,poker.jpg,clock.jpg,watch.jpg,0,space,NA,NA,NA,space,space,NA,space,16388.00883,NA,NA,NA,10977.2718,12664.99996,NA,16388.00883,2,psycho,1024,2,48000,-16,experiment,1114,even,NA,NA,8256.081104,421324.3692,420324.2252,420324.1661,420324.307,19282.619,NA,NA,NA,NA,8304.776192,51988.55209,423341.5852,19282.60016,425756.901,427641.8982,NA,103955.3452,19323.86899,4512.962103,51970.25108,NA,423341.4462,425756.7301,427641.664,427641.8121,421341.234,423341.5341,425756.8381,421341.316,421341.3651,421341.058,64653.90205,425756.6321,427641.4461,423341.6281,425757.0651,120343.658,420312.047,New experiment,0,0,0,yes,1920
undefined,undefined,56_E_krom_fruit.wav,16,2,"hw:CARD=PCH,DEV=0",PyAlsaAudio (Linux only),1024,44100,2,16,2,"M2: USB Audio (hw:1,0)",SoundDevice (PortAudio),1024,44100,2,undefined,undefined,black,psycho,psycho,psycho,0,uniform,undefined,undefined,undefined,NA,0,0,39,39,39,39,0,NA,NA,NA,NA,0,0,39,0,39,39,NA,0,0,0,0,0,39,39,39,39,39,39,39,39,39,39,0,0,39,Fri Nov  3 10:24:35 2023,1000,2000,The main experiment item,yes,eye-trackingEarlyLate_motu-m2.osexp,/srv/data/research_data/Bob/esther/1EarlyLate,no,mono,no,18,no,white,no,yes,1080,psycho,35,3,/srv/data/research_data/Bob/esther/1EarlyLate/subject-1114.csv,psycho,Lentiform Loewenfeld,3.3.14,banana.jpg,pineapple.jpg,lipstick.jpg,nurse.jpg,0,space,NA,NA,NA,space,space,NA,space,16388.00883,NA,NA,NA,10977.2718,12664.99996,NA,16388.00883,2,psycho,1024,2,48000,-16,experiment,1114,even,NA,NA,8256.081104,428824.5342,427824.4121,427824.2481,427824.4882,19282.619,NA,NA,NA,NA,8304.776192,51988.55209,430841.532,19282.60016,433164.4251,434909.3051,NA,103955.3452,19323.86899,4512.962103,51970.25108,NA,430841.388,433164.2652,434909.1411,434909.2472,428841.177,430841.4781,433164.3641,428841.2602,428841.31,428841.0051,64653.90205,433164.1672,434908.9191,430841.573,433164.5892,120343.658,427802.098,New experiment,0,0,0,yes,1920
undefined,undefined,9_L_sport_bespannen.wav,16,2,"hw:CARD=PCH,DEV=0",PyAlsaAudio (Linux only),1024,44100,2,16,2,"M2: USB Audio (hw:1,0)",SoundDevice (PortAudio),1024,44100,2,undefined,undefined,black,psycho,psycho,psycho,0,uniform,undefined,undefined,undefined,NA,0,0,40,40,40,40,0,NA,NA,NA,NA,0,0,40,0,40,40,NA,0,0,0,0,0,40,40,40,40,40,40,40,40,40,40,0,0,40,Fri Nov  3 10:24:35 2023,1000,2000,The main experiment item,yes,eye-trackingEarlyLate_motu-m2.osexp,/srv/data/research_data/Bob/esther/1EarlyLate,no,mono,no,18,no,white,no,yes,1080,psycho,36,3,/srv/data/research_data/Bob/esther/1EarlyLate/subject-1114.csv,psycho,Lentiform Loewenfeld,3.3.14,mosquito.jpg,bat1.jpg,tennisracket.jpg,wig.jpg,0,space,NA,NA,NA,space,space,NA,space,16388.00883,NA,NA,NA,10977.2718,12664.99996,NA,16388.00883,2,psycho,1024,2,48000,-16,experiment,1114,even,NA,NA,8256.081104,436091.1241,435090.9681,435090.909,435091.0492,19282.619,NA,NA,NA,NA,8304.776192,51988.55209,438108.3241,19282.60016,440942.1191,443453.8581,NA,103955.3452,19323.86899,4512.962103,51970.25108,NA,438108.181,440941.946,443453.6772,443453.7971,436107.9571,438108.2711,440942.0531,436108.0391,436108.0902,436107.7812,64653.90205,440941.8471,443453.4681,438108.3651,440942.286,120343.658,435075.1741,New experiment,0,0,0,yes,1920
undefined,undefined,43_E_slijmerig_langzaam.wav,16,2,"hw:CARD=PCH,DEV=0",PyAlsaAudio (Linux only),1024,44100,2,16,2,"M2: USB Audio (hw:1,0)",SoundDevice (PortAudio),1024,44100,2,undefined,undefined,black,psycho,psycho,psycho,0,uniform,undefined,undefined,undefined,NA,0,0,41,41,41,41,0,NA,NA,NA,NA,0,0,41,0,41,41,NA,0,0,0,0,0,41,41,41,41,41,41,41,41,41,41,0,0,41,Fri Nov  3 10:24:35 2023,1000,2000,The main experiment item,yes,eye-trackingEarlyLate_motu-m2.osexp,/srv/data/research_data/Bob/esther/1EarlyLate,no,mono,no,18,no,white,no,yes,1080,psycho,37,3,/srv/data/research_data/Bob/esther/1EarlyLate/subject-1114.csv,psycho,Lentiform Loewenfeld,3.3.14,snail.jpg,gun.jpg,turtle.jpg,balloon.jpg,0,space,NA,NA,NA,space,space,NA,space,16388.00883,NA,NA,NA,10977.2718,12664.99996,NA,16388.00883,2,psycho,1024,2,48000,-16,experiment,1114,even,NA,NA,8256.081104,444624.5091,443624.378,443624.3172,443624.465,19282.619,NA,NA,NA,NA,8304.776192,51988.55209,446641.6481,19282.60016,450032.207,451590.9212,NA,103955.3452,19323.86899,4512.962103,51970.25108,NA,446641.5091,450032.0411,451590.719,451590.857,444641.289,446641.597,450032.1422,444641.372,444641.4242,444641.1102,64653.90205,450031.9421,451590.533,446641.69,450032.371,120343.658,443616.8611,New experiment,0,0,0,yes,1920
undefined,undefined,42_E_snavel_kou.wav,16,2,"hw:CARD=PCH,DEV=0",PyAlsaAudio (Linux only),1024,44100,2,16,2,"M2: USB Audio (hw:1,0)",SoundDevice (PortAudio),1024,44100,2,undefined,undefined,black,psycho,psycho,psycho,0,uniform,undefined,undefined,undefined,NA,0,0,42,42,42,42,0,NA,NA,NA,NA,0,0,42,0,42,42,NA,0,0,0,0,0,42,42,42,42,42,42,42,42,42,42,0,0,42,Fri Nov  3 10:24:35 2023,1000,2000,The main experiment item,yes,eye-trackingEarlyLate_motu-m2.osexp,/srv/data/research_data/Bob/esther/1EarlyLate,no,mono,no,18,no,white,no,yes,1080,psycho,38,3,/srv/data/research_data/Bob/esther/1EarlyLate/subject-1114.csv,psycho,Lentiform Loewenfeld,3.3.14,eskimo.jpg,bomb.jpg,cigarette.jpg,penguin.jpg,0,space,NA,NA,NA,space,space,NA,space,16388.00883,NA,NA,NA,10977.2718,12664.99996,NA,16388.00883,2,psycho,1024,2,48000,-16,experiment,1114,even,NA,NA,8256.081104,452774.7052,451774.544,451774.3762,451774.6232,19282.619,NA,NA,NA,NA,8304.776192,51988.55209,454791.724,19282.60016,458089.6912,459672.4582,NA,103955.3452,19323.86899,4512.962103,51970.25108,NA,454791.5821,458089.5271,459672.2941,459672.4,452791.3821,454791.671,458089.627,452791.465,452791.513,452791.208,64653.90205,458089.4291,459672.076,454791.7712,458089.869,120343.658,451751.2832,New experiment,0,0,0,yes,1920
undefined,undefined,3_L_eten_boom.wav,16,2,"hw:CARD=PCH,DEV=0",PyAlsaAudio (Linux only),1024,44100,2,16,2,"M2: USB Audio (hw:1,0)",SoundDevice (PortAudio),1024,44100,2,undefined,undefined,black,psycho,psycho,psycho,0,uniform,undefined,undefined,undefined,NA,0,0,43,43,43,43,0,NA,NA,NA,NA,0,0,43,0,43,43,NA,0,0,0,0,0,43,43,43,43,43,43,43,43,43,43,0,0,43,Fri Nov  3 10:24:35 2023,1000,2000,The main experiment item,yes,eye-trackingEarlyLate_motu-m2.osexp,/srv/data/research_data/Bob/esther/1EarlyLate,no,mono,no,18,no,white,no,yes,1080,psycho,39,3,/srv/data/research_data/Bob/esther/1EarlyLate/subject-1114.csv,psycho,Lentiform Loewenfeld,3.3.14,egg.jpg,scissors.jpg,wheelbarrow.jpg,apple.jpg,0,space,NA,NA,NA,space,space,NA,space,16388.00883,NA,NA,NA,10977.2718,12664.99996,NA,16388.00883,2,psycho,1024,2,48000,-16,experiment,1114,even,NA,NA,8256.081104,460841.306,459841.1391,459841.078,459841.223,19282.619,NA,NA,NA,NA,8304.776192,51988.55209,462858.4812,19282.60016,465947.6361,467924.5231,NA,103955.3452,19323.86899,4512.962103,51970.25108,NA,462858.3431,465947.4761,467924.3681,467924.4661,460858.1541,462858.4301,465947.5751,460858.237,460858.2871,460857.98,64653.90205,465947.377,467924.18,462858.5231,465947.8121,120343.658,459833.8292,New experiment,0,0,0,yes,1920
undefined,undefined,39_E_kledingstuk_kantoor.wav,16,2,"hw:CARD=PCH,DEV=0",PyAlsaAudio (Linux only),1024,44100,2,16,2,"M2: USB Audio (hw:1,0)",SoundDevice (PortAudio),1024,44100,2,undefined,undefined,black,psycho,psycho,psycho,0,uniform,undefined,undefined,undefined,NA,0,0,44,44,44,44,0,NA,NA,NA,NA,0,0,44,0,44,44,NA,0,0,0,0,0,44,44,44,44,44,44,44,44,44,44,0,0,44,Fri Nov  3 10:24:35 2023,1000,2000,The main experiment item,yes,eye-trackingEarlyLate_motu-m2.osexp,/srv/data/research_data/Bob/esther/1EarlyLate,no,mono,no,18,no,white,no,yes,1080,psycho,40,3,/srv/data/research_data/Bob/esther/1EarlyLate/subject-1114.csv,psycho,Lentiform Loewenfeld,3.3.14,tie.jpg,chicken.jpg,desk.jpg,carrot.jpg,0,space,NA,NA,NA,space,space,NA,space,16388.00883,NA,NA,NA,10977.2718,12664.99996,NA,16388.00883,2,psycho,1024,2,48000,-16,experiment,1114,even,NA,NA,8256.081104,469091.6991,468091.537,468091.475,468091.6231,19282.619,NA,NA,NA,NA,8304.776192,51988.55209,471108.5322,19282.60016,474499.366,476220.6662,NA,103955.3452,19323.86899,4512.962103,51970.25108,NA,471108.3832,474499.1961,476220.433,476220.5691,469108.2032,471108.475,474499.299,469108.288,469108.3381,469108.0251,64653.90205,474499.0981,476220.264,471108.5742,474499.5301,120343.658,468084.1291,New experiment,0,0,0,yes,1920
undefined,undefined,10_L_bouw_gereedschap.wav,16,2,"hw:CARD=PCH,DEV=0",PyAlsaAudio (Linux only),1024,44100,2,16,2,"M2: USB Audio (hw:1,0)",SoundDevice (PortAudio),1024,44100,2,undefined,undefined,black,psycho,psycho,psycho,0,uniform,undefined,undefined,undefined,NA,0,0,45,45,45,45,0,NA,NA,NA,NA,0,0,45,0,45,45,NA,0,0,0,0,0,45,45,45,45,45,45,45,45,45,45,0,0,45,Fri Nov  3 10:24:35 2023,1000,2000,The main experiment item,yes,eye-trackingEarlyLate_motu-m2.osexp,/srv/data/research_data/Bob/esther/1EarlyLate,no,mono,no,18,no,white,no,yes,1080,psycho,41,3,/srv/data/research_data/Bob/esther/1EarlyLate/subject-1114.csv,psycho,Lentiform Loewenfeld,3.3.14,pig.jpg,hammer2.jpg,cowboy.jpg,wall.jpg,0,space,NA,NA,NA,space,space,NA,space,16388.00883,NA,NA,NA,10977.2718,12664.99996,NA,16388.00883,2,psycho,1024,2,48000,-16,experiment,1114,even,NA,NA,8256.081104,477408.2031,476408.021,476407.8472,476408.113,19282.619,NA,NA,NA,NA,8304.776192,51988.55209,479425.113,19282.60016,482281.404,484676.1281,NA,103955.3452,19323.86899,4512.962103,51970.25108,NA,479424.9701,482281.2381,484675.961,484676.0681,477424.7611,479425.0591,482281.3401,477424.845,477424.896,477424.5801,64653.90205,482281.1401,484675.7481,479425.153,482281.569,120343.658,476389.0071,New experiment,0,0,0,yes,1920
undefined,undefined,31_E_pagina_wijsheid.wav,16,2,"hw:CARD=PCH,DEV=0",PyAlsaAudio (Linux only),1024,44100,2,16,2,"M2: USB Audio (hw:1,0)",SoundDevice (PortAudio),1024,44100,2,undefined,undefined,black,psycho,psycho,psycho,0,uniform,undefined,undefined,undefined,NA,0,0,46,46,46,46,0,NA,NA,NA,NA,0,0,46,0,46,46,NA,0,0,0,0,0,46,46,46,46,46,46,46,46,46,46,0,0,46,Fri Nov  3 10:24:35 2023,1000,2000,The main experiment item,yes,eye-trackingEarlyLate_motu-m2.osexp,/srv/data/research_data/Bob/esther/1EarlyLate,no,mono,no,18,no,white,no,yes,1080,psycho,42,3,/srv/data/research_data/Bob/esther/1EarlyLate/subject-1114.csv,psycho,Lentiform Loewenfeld,3.3.14,book.jpg,belt.jpg,owl.jpg,grave2.jpg,0,space,NA,NA,NA,space,space,NA,space,16388.00883,NA,NA,NA,10977.2718,12664.99996,NA,16388.00883,2,psycho,1024,2,48000,-16,experiment,1114,even,NA,NA,8256.081104,485858.2501,484858.1011,484857.9361,484858.1791,19282.619,NA,NA,NA,NA,8304.776192,51988.55209,487875.2401,19282.60016,491266.0611,492894.937,NA,103955.3452,19323.86899,4512.962103,51970.25108,NA,487875.0961,491265.897,492894.726,492894.8722,485874.9111,487875.1872,491265.9991,485874.9981,485875.0482,485874.7342,64653.90205,491265.795,492894.5661,487875.282,491266.2292,120343.658,484839.6621,New experiment,0,0,0,yes,1920
undefined,undefined,50_E_poten_gif.wav,16,2,"hw:CARD=PCH,DEV=0",PyAlsaAudio (Linux only),1024,44100,2,16,2,"M2: USB Audio (hw:1,0)",SoundDevice (PortAudio),1024,44100,2,undefined,undefined,black,psycho,psycho,psycho,0,uniform,undefined,undefined,undefined,NA,0,0,47,47,47,47,0,NA,NA,NA,NA,0,0,47,0,47,47,NA,0,0,0,0,0,47,47,47,47,47,47,47,47,47,47,0,0,47,Fri Nov  3 10:24:35 2023,1000,2000,The main experiment item,yes,eye-trackingEarlyLate_motu-m2.osexp,/srv/data/research_data/Bob/esther/1EarlyLate,no,mono,no,18,no,white,no,yes,1080,psycho,43,3,/srv/data/research_data/Bob/esther/1EarlyLate/subject-1114.csv,psycho,Lentiform Loewenfeld,3.3.14,violin.jpg,shower.jpg,snake.jpg,scorpion.jpg,0,space,NA,NA,NA,space,space,NA,space,16388.00883,NA,NA,NA,10977.2718,12664.99996,NA,16388.00883,2,psycho,1024,2,48000,-16,experiment,1114,even,NA,NA,8256.081104,494074.9152,493074.7521,493074.6851,493074.8332,19282.619,NA,NA,NA,NA,8304.776192,51988.55209,496091.974,19282.60016,499041.424,502598.176,NA,103955.3452,19323.86899,4512.962103,51970.25108,NA,496091.8372,499041.265,502597.949,502598.094,494091.619,496091.923,499041.3651,494091.702,494091.763,494091.4361,64653.90205,499041.1611,502597.7461,496092.0141,499041.5881,120343.658,493058.9781,New experiment,0,0,0,yes,1920
undefined,undefined,37_E_levenloos_trouwerij.wav,16,2,"hw:CARD=PCH,DEV=0",PyAlsaAudio (Linux only),1024,44100,2,16,2,"M2: USB Audio (hw:1,0)",SoundDevice (PortAudio),1024,44100,2,undefined,undefined,black,psycho,psycho,psycho,0,uniform,undefined,undefined,undefined,NA,0,0,48,48,48,48,0,NA,NA,NA,NA,0,0,48,0,48,48,NA,0,0,0,0,0,48,48,48,48,48,48,48,48,48,48,0,0,48,Fri Nov  3 10:24:35 2023,1000,2000,The main experiment item,yes,eye-trackingEarlyLate_motu-m2.osexp,/srv/data/research_data/Bob/esther/1EarlyLate,no,mono,no,18,no,white,no,yes,1080,psycho,44,3,/srv/data/research_data/Bob/esther/1EarlyLate/subject-1114.csv,psycho,Lentiform Loewenfeld,3.3.14,cactus.jpg,ring.jpg,turkey.jpg,bride.jpg,0,space,NA,NA,NA,space,space,NA,space,16388.00883,NA,NA,NA,10977.2718,12664.99996,NA,16388.00883,2,psycho,1024,2,48000,-16,experiment,1114,even,NA,NA,8256.081104,503791.6431,502791.492,502791.4312,502791.574,19282.619,NA,NA,NA,NA,8304.776192,51988.55209,505808.6801,19282.60016,508827.8461,510967.5481,NA,103955.3452,19323.86899,4512.962103,51970.25108,NA,505808.538,508827.6711,510967.4091,510967.499,503808.311,505808.6262,508827.7822,503808.404,503808.46,503808.1331,64653.90205,508827.5721,510967.2132,505808.7201,508828.0241,120343.658,502779.032,New experiment,0,0,0,yes,1920
undefined,undefined,36_E_kwispelen_huisdier.wav,16,2,"hw:CARD=PCH,DEV=0",PyAlsaAudio (Linux only),1024,44100,2,16,2,"M2: USB Audio (hw:1,0)",SoundDevice (PortAudio),1024,44100,2,undefined,undefined,black,psycho,psycho,psycho,0,uniform,undefined,undefined,undefined,NA,0,0,49,49,49,49,0,NA,NA,NA,NA,0,0,49,0,49,49,NA,0,0,0,0,0,49,49,49,49,49,49,49,49,49,49,0,0,49,Fri Nov  3 10:24:35 2023,1000,2000,The main experiment item,yes,eye-trackingEarlyLate_motu-m2.osexp,/srv/data/research_data/Bob/esther/1EarlyLate,no,mono,no,18,no,white,no,yes,1080,psycho,45,3,/srv/data/research_data/Bob/esther/1EarlyLate/subject-1114.csv,psycho,Lentiform Loewenfeld,3.3.14,jacket.jpg,cat.jpg,dog.jpg,sun.jpg,0,space,NA,NA,NA,space,space,NA,space,16388.00883,NA,NA,NA,10977.2718,12664.99996,NA,16388.00883,2,psycho,1024,2,48000,-16,experiment,1114,even,NA,NA,8256.081104,512141.6731,511141.4981,511141.439,511141.582,19282.619,NA,NA,NA,NA,8304.776192,51988.55209,514158.7422,19282.60016,517038.64,518806.5541,NA,103955.3452,19323.86899,4512.962103,51970.25108,NA,514158.5951,517038.475,518806.385,518806.4921,512158.391,514158.684,517038.5771,512158.4752,512158.5331,512158.2131,64653.90205,517038.377,518806.186,514158.7851,517038.9321,120343.658,511128.8691,New experiment,0,0,0,yes,1920
undefined,undefined,48_E_veren_praten.wav,16,2,"hw:CARD=PCH,DEV=0",PyAlsaAudio (Linux only),1024,44100,2,16,2,"M2: USB Audio (hw:1,0)",SoundDevice (PortAudio),1024,44100,2,undefined,undefined,black,psycho,psycho,psycho,0,uniform,undefined,undefined,undefined,NA,0,0,50,50,50,50,0,NA,NA,NA,NA,0,0,50,0,50,50,NA,0,0,0,0,0,50,50,50,50,50,50,50,50,50,50,0,0,50,Fri Nov  3 10:24:35 2023,1000,2000,The main experiment item,yes,eye-trackingEarlyLate_motu-m2.osexp,/srv/data/research_data/Bob/esther/1EarlyLate,no,mono,no,18,no,white,no,yes,1080,psycho,46,3,/srv/data/research_data/Bob/esther/1EarlyLate/subject-1114.csv,psycho,Lentiform Loewenfeld,3.3.14,microphone.jpg,parrot.jpg,plate.jpg,guitar.jpg,0,space,NA,NA,NA,space,space,NA,space,16388.00883,NA,NA,NA,10977.2718,12664.99996,NA,16388.00883,2,psycho,1024,2,48000,-16,experiment,1114,even,NA,NA,8256.081104,520008.5311,519008.3601,519008.1952,519008.4391,19282.619,NA,NA,NA,NA,8304.776192,51988.55209,522025.5711,19282.60016,524789.4421,526674.161,NA,103955.3452,19323.86899,4512.962103,51970.25108,NA,522025.43,524789.2702,526673.996,526674.1011,520025.2321,522025.5191,524789.3791,520025.315,520025.3651,520025.0521,64653.90205,524789.171,526673.835,522025.6131,524789.607,120343.658,518990.89,New experiment,0,0,0,yes,1920
undefined,undefined,8_L_ruimte_kraters.wav,16,2,"hw:CARD=PCH,DEV=0",PyAlsaAudio (Linux only),1024,44100,2,16,2,"M2: USB Audio (hw:1,0)",SoundDevice (PortAudio),1024,44100,2,undefined,undefined,black,psycho,psycho,psycho,0,uniform,undefined,undefined,undefined,NA,0,0,51,51,51,51,0,NA,NA,NA,NA,0,0,51,0,51,51,NA,0,0,0,0,0,51,51,51,51,51,51,51,51,51,51,0,0,51,Fri Nov  3 10:24:35 2023,1000,2000,The main experiment item,yes,eye-trackingEarlyLate_motu-m2.osexp,/srv/data/research_data/Bob/esther/1EarlyLate,no,mono,no,18,no,white,no,yes,1080,psycho,47,3,/srv/data/research_data/Bob/esther/1EarlyLate/subject-1114.csv,psycho,Lentiform Loewenfeld,3.3.14,moon.jpg,lion.jpg,rocket.jpg,table.jpg,0,space,NA,NA,NA,space,space,NA,space,16388.00883,NA,NA,NA,10977.2718,12664.99996,NA,16388.00883,2,psycho,1024,2,48000,-16,experiment,1114,even,NA,NA,8256.081104,527858.825,526858.6731,526858.6121,526858.7701,19282.619,NA,NA,NA,NA,8304.776192,51988.55209,529875.6111,19282.60016,532918.169,535103.9572,NA,103955.3452,19323.86899,4512.962103,51970.25108,NA,529875.464,532917.9971,535103.678,535103.848,527875.241,529875.5581,532918.1051,527875.3262,527875.376,527875.067,64653.90205,532917.8991,535103.4071,529875.6521,532918.3462,120343.658,526850.2471,New experiment,0,0,0,yes,1920
undefined,undefined,18_L_verkeer_wielen.wav,16,2,"hw:CARD=PCH,DEV=0",PyAlsaAudio (Linux only),1024,44100,2,16,2,"M2: USB Audio (hw:1,0)",SoundDevice (PortAudio),1024,44100,2,undefined,undefined,black,psycho,psycho,psycho,0,uniform,undefined,undefined,undefined,NA,0,0,52,52,52,52,0,NA,NA,NA,NA,0,0,52,0,52,52,NA,0,0,0,0,0,52,52,52,52,52,52,52,52,52,52,0,0,52,Fri Nov  3 10:24:35 2023,1000,2000,The main experiment item,yes,eye-trackingEarlyLate_motu-m2.osexp,/srv/data/research_data/Bob/esther/1EarlyLate,no,mono,no,18,no,white,no,yes,1080,psycho,48,3,/srv/data/research_data/Bob/esther/1EarlyLate/subject-1114.csv,psycho,Lentiform Loewenfeld,3.3.14,motorcycle.jpg,stoplight.jpg,butterfly.jpg,whip.jpg,0,space,NA,NA,NA,space,space,NA,space,16388.00883,NA,NA,NA,10977.2718,12664.99996,NA,16388.00883,2,psycho,1024,2,48000,-16,experiment,1114,even,NA,NA,8256.081104,536291.9691,535291.815,535291.646,535291.893,19282.619,NA,NA,NA,NA,8304.776192,51988.55209,538308.9912,19282.60016,541072.377,543049.206,NA,103955.3452,19323.86899,4512.962103,51970.25108,NA,538308.8491,541072.2032,543049.0432,543049.1462,536308.6281,538308.938,541072.305,536308.712,536308.774,536308.455,64653.90205,541072.104,543048.84,538309.0341,541072.5532,120343.658,535274.945,New experiment,0,0,0,yes,1920
undefined,undefined,34_E_kieuwen_zee.wav,16,2,"hw:CARD=PCH,DEV=0",PyAlsaAudio (Linux only),1024,44100,2,16,2,"M2: USB Audio (hw:1,0)",SoundDevice (PortAudio),1024,44100,2,undefined,undefined,black,psycho,psycho,psycho,0,uniform,undefined,undefined,undefined,NA,0,0,53,53,53,53,0,NA,NA,NA,NA,0,0,53,0,53,53,NA,0,0,0,0,0,53,53,53,53,53,53,53,53,53,53,0,0,53,Fri Nov  3 10:24:35 2023,1000,2000,The main experiment item,yes,eye-trackingEarlyLate_motu-m2.osexp,/srv/data/research_data/Bob/esther/1EarlyLate,no,mono,no,18,no,white,no,yes,1080,psycho,49,3,/srv/data/research_data/Bob/esther/1EarlyLate/subject-1114.csv,psycho,Lentiform Loewenfeld,3.3.14,submarine.jpg,skirt.jpg,ghost.jpg,shark.jpg,0,space,NA,NA,NA,space,space,NA,space,16388.00883,NA,NA,NA,10977.2718,12664.99996,NA,16388.00883,2,psycho,1024,2,48000,-16,experiment,1114,even,NA,NA,8256.081104,544225.2531,543225.0841,543225.0252,543225.1642,19282.619,NA,NA,NA,NA,8304.776192,51988.55209,546242.3751,19282.60016,548982.6732,551122.2842,NA,103955.3452,19323.86899,4512.962103,51970.25108,NA,546242.234,548982.512,551122.107,551122.2191,544242.0092,546242.3232,548982.6112,544242.0931,544242.146,544241.832,64653.90205,548982.4121,551121.9101,546242.4161,548982.8501,120343.658,543209.3551,New experiment,0,0,0,yes,1920
undefined,undefined,20_L_strepen_vlees.wav,16,2,"hw:CARD=PCH,DEV=0",PyAlsaAudio (Linux only),1024,44100,2,16,2,"M2: USB Audio (hw:1,0)",SoundDevice (PortAudio),1024,44100,2,undefined,undefined,black,psycho,psycho,psycho,0,uniform,undefined,undefined,undefined,NA,0,0,54,54,54,54,0,NA,NA,NA,NA,0,0,54,0,54,54,NA,0,0,0,0,0,54,54,54,54,54,54,54,54,54,54,0,0,54,Fri Nov  3 10:24:35 2023,1000,2000,The main experiment item,yes,eye-trackingEarlyLate_motu-m2.osexp,/srv/data/research_data/Bob/esther/1EarlyLate,no,mono,no,18,no,white,no,yes,1080,psycho,50,3,/srv/data/research_data/Bob/esther/1EarlyLate/subject-1114.csv,psycho,Lentiform Loewenfeld,3.3.14,brush.jpg,tv.jpg,tiger.jpg,zebra.jpg,0,space,NA,NA,NA,space,space,NA,space,16388.00883,NA,NA,NA,10977.2718,12664.99996,NA,16388.00883,2,psycho,1024,2,48000,-16,experiment,1114,even,NA,NA,8256.081104,552308.7301,551308.5821,551308.418,551308.66,19282.619,NA,NA,NA,NA,8304.776192,51988.55209,554325.66,19282.60016,557553.9351,560227.1671,NA,103955.3452,19323.86899,4512.962103,51970.25108,NA,554325.5172,557553.7701,560226.949,560227.077,552325.3081,554325.6071,557553.8731,552325.393,552325.4511,552325.1371,64653.90205,557553.6621,560226.7902,554325.701,557554.1,120343.658,551290.4131,New experiment,0,0,0,yes,1920
undefined,undefined,6_L_licht_elektriciteit.wav,16,2,"hw:CARD=PCH,DEV=0",PyAlsaAudio (Linux only),1024,44100,2,16,2,"M2: USB Audio (hw:1,0)",SoundDevice (PortAudio),1024,44100,2,undefined,undefined,black,psycho,psycho,psycho,0,uniform,undefined,undefined,undefined,NA,0,0,55,55,55,55,0,NA,NA,NA,NA,0,0,55,0,55,55,NA,0,0,0,0,0,55,55,55,55,55,55,55,55,55,55,0,0,55,Fri Nov  3 10:24:35 2023,1000,2000,The main experiment item,yes,eye-trackingEarlyLate_motu-m2.osexp,/srv/data/research_data/Bob/esther/1EarlyLate,no,mono,no,18,no,white,no,yes,1080,psycho,51,3,/srv/data/research_data/Bob/esther/1EarlyLate/subject-1114.csv,psycho,Lentiform Loewenfeld,3.3.14,handcuffs.jpg,lightbulb.jpg,pineapple.jpg,torch.jpg,0,space,NA,NA,NA,space,space,NA,space,16388.00883,NA,NA,NA,10977.2718,12664.99996,NA,16388.00883,2,psycho,1024,2,48000,-16,experiment,1114,even,NA,NA,8256.081104,561425.4181,560425.2851,560425.118,560425.365,19282.619,NA,NA,NA,NA,8304.776192,51988.55209,563442.4181,19282.60016,566902.818,568531.5151,NA,103955.3452,19323.86899,4512.962103,51970.25108,NA,563442.275,566902.6411,568531.348,568531.4541,561442.0681,563442.364,566902.751,561442.152,561442.204,561441.896,64653.90205,566902.5431,568531.183,563442.4601,566902.9851,120343.658,560405.103,New experiment,0,0,0,yes,1920
undefined,undefined,13_L_sprookjes_staart.wav,16,2,"hw:CARD=PCH,DEV=0",PyAlsaAudio (Linux only),1024,44100,2,16,2,"M2: USB Audio (hw:1,0)",SoundDevice (PortAudio),1024,44100,2,undefined,undefined,black,psycho,psycho,psycho,0,uniform,undefined,undefined,undefined,NA,0,0,56,56,56,56,0,NA,NA,NA,NA,0,0,56,0,56,56,NA,0,0,0,0,0,56,56,56,56,56,56,56,56,56,56,0,0,56,Fri Nov  3 10:24:35 2023,1000,2000,The main experiment item,yes,eye-trackingEarlyLate_motu-m2.osexp,/srv/data/research_data/Bob/esther/1EarlyLate,no,mono,no,18,no,white,no,yes,1080,psycho,52,3,/srv/data/research_data/Bob/esther/1EarlyLate/subject-1114.csv,psycho,Lentiform Loewenfeld,3.3.14,fork.jpg,queen.jpg,dragon.jpg,dime.jpg,0,space,NA,NA,NA,space,space,NA,space,16388.00883,NA,NA,NA,10977.2718,12664.99996,NA,16388.00883,2,psycho,1024,2,48000,-16,experiment,1114,even,NA,NA,8256.081104,569708.6871,568708.539,568708.478,568708.622,19282.619,NA,NA,NA,NA,8304.776192,51988.55209,571725.806,19282.60016,574744.802,576512.553,NA,103955.3452,19323.86899,4512.962103,51970.25108,NA,571725.657,574744.627,576512.3792,576512.49,569725.4531,571725.7521,574744.7281,569725.538,569725.59,569725.276,64653.90205,574744.529,576512.172,571725.8492,574744.9682,120343.658,568694.2701,New experiment,0,0,0,yes,1920
undefined,undefined,44_E_eenpersoon_zitten.wav,16,2,"hw:CARD=PCH,DEV=0",PyAlsaAudio (Linux only),1024,44100,2,16,2,"M2: USB Audio (hw:1,0)",SoundDevice (PortAudio),1024,44100,2,undefined,undefined,black,psycho,psycho,psycho,0,uniform,undefined,undefined,undefined,NA,0,0,57,57,57,57,0,NA,NA,NA,NA,0,0,57,0,57,57,NA,0,0,0,0,0,57,57,57,57,57,57,57,57,57,57,0,0,57,Fri Nov  3 10:24:35 2023,1000,2000,The main experiment item,yes,eye-trackingEarlyLate_motu-m2.osexp,/srv/data/research_data/Bob/esther/1EarlyLate,no,mono,no,18,no,white,no,yes,1080,psycho,53,3,/srv/data/research_data/Bob/esther/1EarlyLate/subject-1114.csv,psycho,Lentiform Loewenfeld,3.3.14,bench.jpg,chair.jpg,porcupine.jpg,anchor.jpg,0,space,NA,NA,NA,space,space,NA,space,16388.00883,NA,NA,NA,10977.2718,12664.99996,NA,16388.00883,2,psycho,1024,2,48000,-16,experiment,1114,even,NA,NA,8256.081104,577692.059,576691.8912,576691.8311,576691.972,19282.619,NA,NA,NA,NA,8304.776192,51988.55209,579709.3332,19282.60016,583215.8971,584983.6051,NA,103955.3452,19323.86899,4512.962103,51970.25108,NA,579709.111,583215.6632,584983.4411,584983.546,577708.9121,579709.2371,583215.8,577708.9951,577709.0471,577708.7262,64653.90205,583215.565,584983.2821,579709.388,583216.0652,120343.658,576681.4101,New experiment,0,0,0,yes,1920
undefined,undefined,49_E_oren_prijs.wav,16,2,"hw:CARD=PCH,DEV=0",PyAlsaAudio (Linux only),1024,44100,2,16,2,"M2: USB Audio (hw:1,0)",SoundDevice (PortAudio),1024,44100,2,undefined,undefined,black,psycho,psycho,psycho,0,uniform,undefined,undefined,undefined,NA,0,0,58,58,58,58,0,NA,NA,NA,NA,0,0,58,0,58,58,NA,0,0,0,0,0,58,58,58,58,58,58,58,58,58,58,0,0,58,Fri Nov  3 10:24:35 2023,1000,2000,The main experiment item,yes,eye-trackingEarlyLate_motu-m2.osexp,/srv/data/research_data/Bob/esther/1EarlyLate,no,mono,no,18,no,white,no,yes,1080,psycho,54,3,/srv/data/research_data/Bob/esther/1EarlyLate/subject-1114.csv,psycho,Lentiform Loewenfeld,3.3.14,trophy.jpg,medal.jpg,dress.jpg,anvil.jpg,0,space,NA,NA,NA,space,space,NA,space,16388.00883,NA,NA,NA,10977.2718,12664.99996,NA,16388.00883,2,psycho,1024,2,48000,-16,experiment,1114,even,NA,NA,8256.081104,586175.5071,585175.364,585175.3061,585175.4451,19282.619,NA,NA,NA,NA,8304.776192,51988.55209,588192.6222,19282.60016,591095.5372,593397.469,NA,103955.3452,19323.86899,4512.962103,51970.25108,NA,588192.482,591095.3701,593397.31,593397.409,586192.292,588192.57,591095.4721,586192.3752,586192.425,586192.116,64653.90205,591095.2711,593397.12,588192.6641,591095.7031,120343.658,585162.118,New experiment,0,0,0,yes,1920
undefined,undefined,2_L_vuur_was.wav,16,2,"hw:CARD=PCH,DEV=0",PyAlsaAudio (Linux only),1024,44100,2,16,2,"M2: USB Audio (hw:1,0)",SoundDevice (PortAudio),1024,44100,2,undefined,undefined,black,psycho,psycho,psycho,0,uniform,undefined,undefined,undefined,NA,0,0,59,59,59,59,0,NA,NA,NA,NA,0,0,59,0,59,59,NA,0,0,0,0,0,59,59,59,59,59,59,59,59,59,59,0,0,59,Fri Nov  3 10:24:35 2023,1000,2000,The main experiment item,yes,eye-trackingEarlyLate_motu-m2.osexp,/srv/data/research_data/Bob/esther/1EarlyLate,no,mono,no,18,no,white,no,yes,1080,psycho,55,3,/srv/data/research_data/Bob/esther/1EarlyLate/subject-1114.csv,psycho,Lentiform Loewenfeld,3.3.14,crib.jpg,candle.jpg,rake.jpg,match1.jpg,0,space,NA,NA,NA,space,space,NA,space,16388.00883,NA,NA,NA,10977.2718,12664.99996,NA,16388.00883,2,psycho,1024,2,48000,-16,experiment,1114,even,NA,NA,8256.081104,594575.583,593575.413,593575.3531,593575.4912,19282.619,NA,NA,NA,NA,8304.776192,51988.55209,596592.6461,19282.60016,599820.478,601751.3061,NA,103955.3452,19323.86899,4512.962103,51970.25108,NA,596592.5081,599820.3111,601751.1551,601751.2522,594592.294,596592.5961,599820.415,594592.3741,594592.422,594592.118,64653.90205,599820.2171,601750.993,596592.6881,599820.78,120343.658,593560.0061,New experiment,0,0,0,yes,1920
